ExperimentName	Subject	Session	Clock.Information	DataFile.Basename	Display.RefreshRate	ExperimentVersion	Group	RandomSeed	RuntimeCapabilities	RuntimeVersion	RuntimeVersionExpected	SessionDate	SessionStartDateTimeUtc	SessionTime	StudioVersion	Block	explist	explist.Cycle	explist.Sample	filename[Block]	praclist	praclist.Cycle	praclist.Sample	pracSlide1.ACC	pracSlide1.CRESP	pracSlide1.DurationError	pracSlide1.OnsetDelay	pracSlide1.OnsetTime	pracSlide1.OnsetToOnsetTime	pracSlide1.RESP	pracSlide1.RT	pracSlide1.RTTime	pracSoundOut1.ACC	pracSoundOut1.CRESP	pracSoundOut1.DurationError	pracSoundOut1.OnsetDelay	pracSoundOut1.OnsetTime	pracSoundOut1.RESP	pracSoundOut1.RT	pracSoundOut1.RTTime	Procedure[Block]	Running[Block]	speaker[Block]	syllable[Block]	token[Block]	tone[Block]	Trial	f1List1	f1List1.Cycle	f1List1.Sample	f1List2	f1List2.Cycle	f1List2.Sample	f2List1	f2List1.Cycle	f2List1.Sample	f2List2	f2List2.Cycle	f2List2.Sample	filename[Trial]	Procedure[Trial]	Running[Trial]	Slide1.ACC	Slide1.CRESP	Slide1.DurationError	Slide1.OnsetDelay	Slide1.OnsetTime	Slide1.OnsetToOnsetTime	Slide1.RESP	Slide1.RT	Slide1.RTTime	SoundOut1.ACC	SoundOut1.CRESP	SoundOut1.DurationError	SoundOut1.OnsetDelay	SoundOut1.OnsetTime	SoundOut1.RESP	SoundOut1.RT	SoundOut1.RTTime	speaker[Trial]	syllable[Trial]	token[Trial]	tone[Trial]
Assimilation_2b	101	1	<?xml version="1.0"?>\n<Clock xmlns:dt="urn:schemas-microsoft-com:datatypes"><Description dt:dt="string">E-Prime Primary Realtime Clock</Description><StartTime><Timestamp dt:dt="int">0</Timestamp><DateUtc dt:dt="string">2017-12-26T06:39:05Z</DateUtc></StartTime><FrequencyChanges><FrequencyChange><Frequency dt:dt="r8">2742343</Frequency><Timestamp dt:dt="r8">15765959310</Timestamp><Current dt:dt="r8">0</Current><DateUtc dt:dt="string">2017-12-26T06:39:05Z</DateUtc></FrequencyChange></FrequencyChanges></Clock>\n	Assimilation_2b-101-1	60.015	1.0.0.62	1	-1413574928	Professional	2.0.10.353	2.0.10.353	12-26-2017	26-Dec-17 6:39:05 AM	17:39:05	2.0.10.248	1				Thai_F4_maa241-5	2	1	1	0		0	-1	146763	0	2	2590	149353	1		369	-1	142763		0	0	pracproc	praclist	F4	maa	5	241																																					
Assimilation_2b	101	1	<?xml version="1.0"?>\n<Clock xmlns:dt="urn:schemas-microsoft-com:datatypes"><Description dt:dt="string">E-Prime Primary Realtime Clock</Description><StartTime><Timestamp dt:dt="int">0</Timestamp><DateUtc dt:dt="string">2017-12-26T06:39:05Z</DateUtc></StartTime><FrequencyChanges><FrequencyChange><Frequency dt:dt="r8">2742343</Frequency><Timestamp dt:dt="r8">15765959310</Timestamp><Current dt:dt="r8">0</Current><DateUtc dt:dt="string">2017-12-26T06:39:05Z</DateUtc></FrequencyChange></FrequencyChanges></Clock>\n	Assimilation_2b-101-1	60.015	1.0.0.62	1	-1413574928	Professional	2.0.10.353	2.0.10.353	12-26-2017	26-Dec-17 6:39:05 AM	17:39:05	2.0.10.248	2				Thai_F4_maa45-4	15	1	2	0		0	0	155761	0	5	1992	157753	0		0	-1	151761	h	2823	154584	pracproc	praclist	F4	maa	4	45																																					
Assimilation_2b	101	1	<?xml version="1.0"?>\n<Clock xmlns:dt="urn:schemas-microsoft-com:datatypes"><Description dt:dt="string">E-Prime Primary Realtime Clock</Description><StartTime><Timestamp dt:dt="int">0</Timestamp><DateUtc dt:dt="string">2017-12-26T06:39:05Z</DateUtc></StartTime><FrequencyChanges><FrequencyChange><Frequency dt:dt="r8">2742343</Frequency><Timestamp dt:dt="r8">15765959310</Timestamp><Current dt:dt="r8">0</Current><DateUtc dt:dt="string">2017-12-26T06:39:05Z</DateUtc></FrequencyChange></FrequencyChanges></Clock>\n	Assimilation_2b-101-1	60.015	1.0.0.62	1	-1413574928	Professional	2.0.10.353	2.0.10.353	12-26-2017	26-Dec-17 6:39:05 AM	17:39:05	2.0.10.248	3				Thai_F4_maa45-3	5	1	3	0		0	-1	164758	0	6	2584	167342	0		0	-1	160759	g	3714	164473	pracproc	praclist	F4	maa	3	45																																					
Assimilation_2b	101	1	<?xml version="1.0"?>\n<Clock xmlns:dt="urn:schemas-microsoft-com:datatypes"><Description dt:dt="string">E-Prime Primary Realtime Clock</Description><StartTime><Timestamp dt:dt="int">0</Timestamp><DateUtc dt:dt="string">2017-12-26T06:39:05Z</DateUtc></StartTime><FrequencyChanges><FrequencyChange><Frequency dt:dt="r8">2742343</Frequency><Timestamp dt:dt="r8">15765959310</Timestamp><Current dt:dt="r8">0</Current><DateUtc dt:dt="string">2017-12-26T06:39:05Z</DateUtc></FrequencyChange></FrequencyChanges></Clock>\n	Assimilation_2b-101-1	60.015	1.0.0.62	1	-1413574928	Professional	2.0.10.353	2.0.10.353	12-26-2017	26-Dec-17 6:39:05 AM	17:39:05	2.0.10.248	4				Thai_F4_mii33-5	9	1	4	0		0	-1	173756	0	7	2443	176199	0		0	-1	169756	f	2269	172025	pracproc	praclist	F4	mii	5	33																																					
Assimilation_2b	101	1	<?xml version="1.0"?>\n<Clock xmlns:dt="urn:schemas-microsoft-com:datatypes"><Description dt:dt="string">E-Prime Primary Realtime Clock</Description><StartTime><Timestamp dt:dt="int">0</Timestamp><DateUtc dt:dt="string">2017-12-26T06:39:05Z</DateUtc></StartTime><FrequencyChanges><FrequencyChange><Frequency dt:dt="r8">2742343</Frequency><Timestamp dt:dt="r8">15765959310</Timestamp><Current dt:dt="r8">0</Current><DateUtc dt:dt="string">2017-12-26T06:39:05Z</DateUtc></FrequencyChange></FrequencyChanges></Clock>\n	Assimilation_2b-101-1	60.015	1.0.0.62	1	-1413574928	Professional	2.0.10.353	2.0.10.353	12-26-2017	26-Dec-17 6:39:05 AM	17:39:05	2.0.10.248	5				Thai_F4_mii315-6	18	1	5	0		0	-1	182754	0	7	2329	185083	0		0	-1	178754	h	1286	180040	pracproc	praclist	F4	mii	6	315																																					
Assimilation_2b	101	1	<?xml version="1.0"?>\n<Clock xmlns:dt="urn:schemas-microsoft-com:datatypes"><Description dt:dt="string">E-Prime Primary Realtime Clock</Description><StartTime><Timestamp dt:dt="int">0</Timestamp><DateUtc dt:dt="string">2017-12-26T06:39:05Z</DateUtc></StartTime><FrequencyChanges><FrequencyChange><Frequency dt:dt="r8">2742343</Frequency><Timestamp dt:dt="r8">15765959310</Timestamp><Current dt:dt="r8">0</Current><DateUtc dt:dt="string">2017-12-26T06:39:05Z</DateUtc></FrequencyChange></FrequencyChanges></Clock>\n	Assimilation_2b-101-1	60.015	1.0.0.62	1	-1413574928	Professional	2.0.10.353	2.0.10.353	12-26-2017	26-Dec-17 6:39:05 AM	17:39:05	2.0.10.248	6				Thai_F4_mii45-3	20	1	6	0		0	0	191752	0	7	2480	194232	0		0	-1	187752	g	1549	189301	pracproc	praclist	F4	mii	3	45																																					
Assimilation_2b	101	1	<?xml version="1.0"?>\n<Clock xmlns:dt="urn:schemas-microsoft-com:datatypes"><Description dt:dt="string">E-Prime Primary Realtime Clock</Description><StartTime><Timestamp dt:dt="int">0</Timestamp><DateUtc dt:dt="string">2017-12-26T06:39:05Z</DateUtc></StartTime><FrequencyChanges><FrequencyChange><Frequency dt:dt="r8">2742343</Frequency><Timestamp dt:dt="r8">15765959310</Timestamp><Current dt:dt="r8">0</Current><DateUtc dt:dt="string">2017-12-26T06:39:05Z</DateUtc></FrequencyChange></FrequencyChanges></Clock>\n	Assimilation_2b-101-1	60.015	1.0.0.62	1	-1413574928	Professional	2.0.10.353	2.0.10.353	12-26-2017	26-Dec-17 6:39:05 AM	17:39:05	2.0.10.248	7				Thai_F4_mii45-2	10	1	7	0		0	-1	200749	0	6	2882	203631	0		0	-1	196750	g	1888	198638	pracproc	praclist	F4	mii	2	45																																					
Assimilation_2b	101	1	<?xml version="1.0"?>\n<Clock xmlns:dt="urn:schemas-microsoft-com:datatypes"><Description dt:dt="string">E-Prime Primary Realtime Clock</Description><StartTime><Timestamp dt:dt="int">0</Timestamp><DateUtc dt:dt="string">2017-12-26T06:39:05Z</DateUtc></StartTime><FrequencyChanges><FrequencyChange><Frequency dt:dt="r8">2742343</Frequency><Timestamp dt:dt="r8">15765959310</Timestamp><Current dt:dt="r8">0</Current><DateUtc dt:dt="string">2017-12-26T06:39:05Z</DateUtc></FrequencyChange></FrequencyChanges></Clock>\n	Assimilation_2b-101-1	60.015	1.0.0.62	1	-1413574928	Professional	2.0.10.353	2.0.10.353	12-26-2017	26-Dec-17 6:39:05 AM	17:39:05	2.0.10.248	8				Thai_F4_mii21-6	16	1	8	0		0	-1	209747	0	7	1247	210994	0		0	-1	205747	h	1261	207008	pracproc	praclist	F4	mii	6	21																																					
Assimilation_2b	101	1	<?xml version="1.0"?>\n<Clock xmlns:dt="urn:schemas-microsoft-com:datatypes"><Description dt:dt="string">E-Prime Primary Realtime Clock</Description><StartTime><Timestamp dt:dt="int">0</Timestamp><DateUtc dt:dt="string">2017-12-26T06:39:05Z</DateUtc></StartTime><FrequencyChanges><FrequencyChange><Frequency dt:dt="r8">2742343</Frequency><Timestamp dt:dt="r8">15765959310</Timestamp><Current dt:dt="r8">0</Current><DateUtc dt:dt="string">2017-12-26T06:39:05Z</DateUtc></FrequencyChange></FrequencyChanges></Clock>\n	Assimilation_2b-101-1	60.015	1.0.0.62	1	-1413574928	Professional	2.0.10.353	2.0.10.353	12-26-2017	26-Dec-17 6:39:05 AM	17:39:05	2.0.10.248	9				Thai_F4_mii241-5	17	1	9	0		0	-1	218745	0	7	1158	219903	0		0	-1	214745	j	1230	215975	pracproc	praclist	F4	mii	5	241																																					
Assimilation_2b	101	1	<?xml version="1.0"?>\n<Clock xmlns:dt="urn:schemas-microsoft-com:datatypes"><Description dt:dt="string">E-Prime Primary Realtime Clock</Description><StartTime><Timestamp dt:dt="int">0</Timestamp><DateUtc dt:dt="string">2017-12-26T06:39:05Z</DateUtc></StartTime><FrequencyChanges><FrequencyChange><Frequency dt:dt="r8">2742343</Frequency><Timestamp dt:dt="r8">15765959310</Timestamp><Current dt:dt="r8">0</Current><DateUtc dt:dt="string">2017-12-26T06:39:05Z</DateUtc></FrequencyChange></FrequencyChanges></Clock>\n	Assimilation_2b-101-1	60.015	1.0.0.62	1	-1413574928	Professional	2.0.10.353	2.0.10.353	12-26-2017	26-Dec-17 6:39:05 AM	17:39:05	2.0.10.248	10				Thai_F4_maa315-6	13	1	10	0		0	0	227743	0	7	2670	230413	0		0	-1	223743	g	2183	225926	pracproc	praclist	F4	maa	6	315																																					
Assimilation_2b	101	1	<?xml version="1.0"?>\n<Clock xmlns:dt="urn:schemas-microsoft-com:datatypes"><Description dt:dt="string">E-Prime Primary Realtime Clock</Description><StartTime><Timestamp dt:dt="int">0</Timestamp><DateUtc dt:dt="string">2017-12-26T06:39:05Z</DateUtc></StartTime><FrequencyChanges><FrequencyChange><Frequency dt:dt="r8">2742343</Frequency><Timestamp dt:dt="r8">15765959310</Timestamp><Current dt:dt="r8">0</Current><DateUtc dt:dt="string">2017-12-26T06:39:05Z</DateUtc></FrequencyChange></FrequencyChanges></Clock>\n	Assimilation_2b-101-1	60.015	1.0.0.62	1	-1413574928	Professional	2.0.10.353	2.0.10.353	12-26-2017	26-Dec-17 6:39:05 AM	17:39:05	2.0.10.248	11				Thai_F4_mii315-4	8	1	11	0		0	-1	236740	0	5	1238	237978	0		0	-1	232741	g	1867	234608	pracproc	praclist	F4	mii	4	315																																					
Assimilation_2b	101	1	<?xml version="1.0"?>\n<Clock xmlns:dt="urn:schemas-microsoft-com:datatypes"><Description dt:dt="string">E-Prime Primary Realtime Clock</Description><StartTime><Timestamp dt:dt="int">0</Timestamp><DateUtc dt:dt="string">2017-12-26T06:39:05Z</DateUtc></StartTime><FrequencyChanges><FrequencyChange><Frequency dt:dt="r8">2742343</Frequency><Timestamp dt:dt="r8">15765959310</Timestamp><Current dt:dt="r8">0</Current><DateUtc dt:dt="string">2017-12-26T06:39:05Z</DateUtc></FrequencyChange></FrequencyChanges></Clock>\n	Assimilation_2b-101-1	60.015	1.0.0.62	1	-1413574928	Professional	2.0.10.353	2.0.10.353	12-26-2017	26-Dec-17 6:39:05 AM	17:39:05	2.0.10.248	12				Thai_F4_maa33-1	4	1	12	0		0	-1	245738	0	5	3074	248812	0		0	-1	241738	f	2029	243767	pracproc	praclist	F4	maa	1	33																																					
Assimilation_2b	101	1	<?xml version="1.0"?>\n<Clock xmlns:dt="urn:schemas-microsoft-com:datatypes"><Description dt:dt="string">E-Prime Primary Realtime Clock</Description><StartTime><Timestamp dt:dt="int">0</Timestamp><DateUtc dt:dt="string">2017-12-26T06:39:05Z</DateUtc></StartTime><FrequencyChanges><FrequencyChange><Frequency dt:dt="r8">2742343</Frequency><Timestamp dt:dt="r8">15765959310</Timestamp><Current dt:dt="r8">0</Current><DateUtc dt:dt="string">2017-12-26T06:39:05Z</DateUtc></FrequencyChange></FrequencyChanges></Clock>\n	Assimilation_2b-101-1	60.015	1.0.0.62	1	-1413574928	Professional	2.0.10.353	2.0.10.353	12-26-2017	26-Dec-17 6:39:05 AM	17:39:05	2.0.10.248	13				Thai_F4_maa21-4	11	1	13	0		0	-1	254736	0	5	937	255673	0		0	-1	250736	h	1812	252548	pracproc	praclist	F4	maa	4	21																																					
Assimilation_2b	101	1	<?xml version="1.0"?>\n<Clock xmlns:dt="urn:schemas-microsoft-com:datatypes"><Description dt:dt="string">E-Prime Primary Realtime Clock</Description><StartTime><Timestamp dt:dt="int">0</Timestamp><DateUtc dt:dt="string">2017-12-26T06:39:05Z</DateUtc></StartTime><FrequencyChanges><FrequencyChange><Frequency dt:dt="r8">2742343</Frequency><Timestamp dt:dt="r8">15765959310</Timestamp><Current dt:dt="r8">0</Current><DateUtc dt:dt="string">2017-12-26T06:39:05Z</DateUtc></FrequencyChange></FrequencyChanges></Clock>\n	Assimilation_2b-101-1	60.015	1.0.0.62	1	-1413574928	Professional	2.0.10.353	2.0.10.353	12-26-2017	26-Dec-17 6:39:05 AM	17:39:05	2.0.10.248	14				Thai_F4_maa33-5	14	1	14	0		0	0	263734	0	6	2785	266519	0		0	-1	259734	f	1898	261632	pracproc	praclist	F4	maa	5	33																																					
Assimilation_2b	101	1	<?xml version="1.0"?>\n<Clock xmlns:dt="urn:schemas-microsoft-com:datatypes"><Description dt:dt="string">E-Prime Primary Realtime Clock</Description><StartTime><Timestamp dt:dt="int">0</Timestamp><DateUtc dt:dt="string">2017-12-26T06:39:05Z</DateUtc></StartTime><FrequencyChanges><FrequencyChange><Frequency dt:dt="r8">2742343</Frequency><Timestamp dt:dt="r8">15765959310</Timestamp><Current dt:dt="r8">0</Current><DateUtc dt:dt="string">2017-12-26T06:39:05Z</DateUtc></FrequencyChange></FrequencyChanges></Clock>\n	Assimilation_2b-101-1	60.015	1.0.0.62	1	-1413574928	Professional	2.0.10.353	2.0.10.353	12-26-2017	26-Dec-17 6:39:05 AM	17:39:05	2.0.10.248	15				Thai_F4_mii33-6	19	1	15	0		0	-1	272731	0	6	2474	275205	0		0	-1	268732	f	1141	269873	pracproc	praclist	F4	mii	6	33																																					
Assimilation_2b	101	1	<?xml version="1.0"?>\n<Clock xmlns:dt="urn:schemas-microsoft-com:datatypes"><Description dt:dt="string">E-Prime Primary Realtime Clock</Description><StartTime><Timestamp dt:dt="int">0</Timestamp><DateUtc dt:dt="string">2017-12-26T06:39:05Z</DateUtc></StartTime><FrequencyChanges><FrequencyChange><Frequency dt:dt="r8">2742343</Frequency><Timestamp dt:dt="r8">15765959310</Timestamp><Current dt:dt="r8">0</Current><DateUtc dt:dt="string">2017-12-26T06:39:05Z</DateUtc></FrequencyChange></FrequencyChanges></Clock>\n	Assimilation_2b-101-1	60.015	1.0.0.62	1	-1413574928	Professional	2.0.10.353	2.0.10.353	12-26-2017	26-Dec-17 6:39:05 AM	17:39:05	2.0.10.248	16				Thai_F4_maa315-5	3	1	16	0		0	-1	281729	0	7	862	282591	0		0	-1	277729	g	1760	279489	pracproc	praclist	F4	maa	5	315																																					
Assimilation_2b	101	1	<?xml version="1.0"?>\n<Clock xmlns:dt="urn:schemas-microsoft-com:datatypes"><Description dt:dt="string">E-Prime Primary Realtime Clock</Description><StartTime><Timestamp dt:dt="int">0</Timestamp><DateUtc dt:dt="string">2017-12-26T06:39:05Z</DateUtc></StartTime><FrequencyChanges><FrequencyChange><Frequency dt:dt="r8">2742343</Frequency><Timestamp dt:dt="r8">15765959310</Timestamp><Current dt:dt="r8">0</Current><DateUtc dt:dt="string">2017-12-26T06:39:05Z</DateUtc></FrequencyChange></FrequencyChanges></Clock>\n	Assimilation_2b-101-1	60.015	1.0.0.62	1	-1413574928	Professional	2.0.10.353	2.0.10.353	12-26-2017	26-Dec-17 6:39:05 AM	17:39:05	2.0.10.248	17				Thai_F4_maa241-6	12	1	17	0		0	-1	290727	0	5	2226	292953	0		0	-1	286727	f	3261	289988	pracproc	praclist	F4	maa	6	241																																					
Assimilation_2b	101	1	<?xml version="1.0"?>\n<Clock xmlns:dt="urn:schemas-microsoft-com:datatypes"><Description dt:dt="string">E-Prime Primary Realtime Clock</Description><StartTime><Timestamp dt:dt="int">0</Timestamp><DateUtc dt:dt="string">2017-12-26T06:39:05Z</DateUtc></StartTime><FrequencyChanges><FrequencyChange><Frequency dt:dt="r8">2742343</Frequency><Timestamp dt:dt="r8">15765959310</Timestamp><Current dt:dt="r8">0</Current><DateUtc dt:dt="string">2017-12-26T06:39:05Z</DateUtc></FrequencyChange></FrequencyChanges></Clock>\n	Assimilation_2b-101-1	60.015	1.0.0.62	1	-1413574928	Professional	2.0.10.353	2.0.10.353	12-26-2017	26-Dec-17 6:39:05 AM	17:39:05	2.0.10.248	18				Thai_F4_maa21-1	1	1	18	0		0	0	299725	0	7	2744	302469	0		0	-1	295725	h	1538	297263	pracproc	praclist	F4	maa	1	21																																					
Assimilation_2b	101	1	<?xml version="1.0"?>\n<Clock xmlns:dt="urn:schemas-microsoft-com:datatypes"><Description dt:dt="string">E-Prime Primary Realtime Clock</Description><StartTime><Timestamp dt:dt="int">0</Timestamp><DateUtc dt:dt="string">2017-12-26T06:39:05Z</DateUtc></StartTime><FrequencyChanges><FrequencyChange><Frequency dt:dt="r8">2742343</Frequency><Timestamp dt:dt="r8">15765959310</Timestamp><Current dt:dt="r8">0</Current><DateUtc dt:dt="string">2017-12-26T06:39:05Z</DateUtc></FrequencyChange></FrequencyChanges></Clock>\n	Assimilation_2b-101-1	60.015	1.0.0.62	1	-1413574928	Professional	2.0.10.353	2.0.10.353	12-26-2017	26-Dec-17 6:39:05 AM	17:39:05	2.0.10.248	19				Thai_F4_mii241-2	7	1	19	0		0	-1	308722	0	7	440	309162	0		0	-1	304723	j	910	305633	pracproc	praclist	F4	mii	2	241																																					
Assimilation_2b	101	1	<?xml version="1.0"?>\n<Clock xmlns:dt="urn:schemas-microsoft-com:datatypes"><Description dt:dt="string">E-Prime Primary Realtime Clock</Description><StartTime><Timestamp dt:dt="int">0</Timestamp><DateUtc dt:dt="string">2017-12-26T06:39:05Z</DateUtc></StartTime><FrequencyChanges><FrequencyChange><Frequency dt:dt="r8">2742343</Frequency><Timestamp dt:dt="r8">15765959310</Timestamp><Current dt:dt="r8">0</Current><DateUtc dt:dt="string">2017-12-26T06:39:05Z</DateUtc></FrequencyChange></FrequencyChanges></Clock>\n	Assimilation_2b-101-1	60.015	1.0.0.62	1	-1413574928	Professional	2.0.10.353	2.0.10.353	12-26-2017	26-Dec-17 6:39:05 AM	17:39:05	2.0.10.248	20				Thai_F4_mii21-2	6	1	20	0		0	-1	317720	0	6	3357	321077	0		0	-1	313720	h	1119	314839	pracproc	praclist	F4	mii	2	21																																					
Assimilation_2b	101	1	<?xml version="1.0"?>\n<Clock xmlns:dt="urn:schemas-microsoft-com:datatypes"><Description dt:dt="string">E-Prime Primary Realtime Clock</Description><StartTime><Timestamp dt:dt="int">0</Timestamp><DateUtc dt:dt="string">2017-12-26T06:39:05Z</DateUtc></StartTime><FrequencyChanges><FrequencyChange><Frequency dt:dt="r8">2742343</Frequency><Timestamp dt:dt="r8">15765959310</Timestamp><Current dt:dt="r8">0</Current><DateUtc dt:dt="string">2017-12-26T06:39:05Z</DateUtc></FrequencyChange></FrequencyChanges></Clock>\n	Assimilation_2b-101-1	60.015	1.0.0.62	1	-1413574928	Professional	2.0.10.353	2.0.10.353	12-26-2017	26-Dec-17 6:39:05 AM	17:39:05	2.0.10.248	21	3	1	1																						f2proc1	explist					1							7	1	1				Thai_F2_mii241-2	exproc	f2List1	0		0	0	330434	0	5	2729	333163	1		0	-1	326434		0	0	F2	mii	2	241
Assimilation_2b	101	1	<?xml version="1.0"?>\n<Clock xmlns:dt="urn:schemas-microsoft-com:datatypes"><Description dt:dt="string">E-Prime Primary Realtime Clock</Description><StartTime><Timestamp dt:dt="int">0</Timestamp><DateUtc dt:dt="string">2017-12-26T06:39:05Z</DateUtc></StartTime><FrequencyChanges><FrequencyChange><Frequency dt:dt="r8">2742343</Frequency><Timestamp dt:dt="r8">15765959310</Timestamp><Current dt:dt="r8">0</Current><DateUtc dt:dt="string">2017-12-26T06:39:05Z</DateUtc></FrequencyChange></FrequencyChanges></Clock>\n	Assimilation_2b-101-1	60.015	1.0.0.62	1	-1413574928	Professional	2.0.10.353	2.0.10.353	12-26-2017	26-Dec-17 6:39:05 AM	17:39:05	2.0.10.248	21	3	1	1																						f2proc1	explist					2							10	1	2				Thai_F2_mii45-2	exproc	f2List1	0		0	-1	339431	0	6	2526	341957	0		0	-1	335432	g	1101	336533	F2	mii	2	45
Assimilation_2b	101	1	<?xml version="1.0"?>\n<Clock xmlns:dt="urn:schemas-microsoft-com:datatypes"><Description dt:dt="string">E-Prime Primary Realtime Clock</Description><StartTime><Timestamp dt:dt="int">0</Timestamp><DateUtc dt:dt="string">2017-12-26T06:39:05Z</DateUtc></StartTime><FrequencyChanges><FrequencyChange><Frequency dt:dt="r8">2742343</Frequency><Timestamp dt:dt="r8">15765959310</Timestamp><Current dt:dt="r8">0</Current><DateUtc dt:dt="string">2017-12-26T06:39:05Z</DateUtc></FrequencyChange></FrequencyChanges></Clock>\n	Assimilation_2b-101-1	60.015	1.0.0.62	1	-1413574928	Professional	2.0.10.353	2.0.10.353	12-26-2017	26-Dec-17 6:39:05 AM	17:39:05	2.0.10.248	21	3	1	1																						f2proc1	explist					3							2	1	3				Thai_F2_maa241-3	exproc	f2List1	0		0	-1	348429	0	4	1728	350157	0		0	-1	344429	f	1696	346125	F2	maa	3	241
Assimilation_2b	101	1	<?xml version="1.0"?>\n<Clock xmlns:dt="urn:schemas-microsoft-com:datatypes"><Description dt:dt="string">E-Prime Primary Realtime Clock</Description><StartTime><Timestamp dt:dt="int">0</Timestamp><DateUtc dt:dt="string">2017-12-26T06:39:05Z</DateUtc></StartTime><FrequencyChanges><FrequencyChange><Frequency dt:dt="r8">2742343</Frequency><Timestamp dt:dt="r8">15765959310</Timestamp><Current dt:dt="r8">0</Current><DateUtc dt:dt="string">2017-12-26T06:39:05Z</DateUtc></FrequencyChange></FrequencyChanges></Clock>\n	Assimilation_2b-101-1	60.015	1.0.0.62	1	-1413574928	Professional	2.0.10.353	2.0.10.353	12-26-2017	26-Dec-17 6:39:05 AM	17:39:05	2.0.10.248	21	3	1	1																						f2proc1	explist					4							4	1	4				Thai_F2_maa33-2	exproc	f2List1	0		0	-1	357427	0	6	410	357837	0		0	-1	353427	f	1366	354793	F2	maa	2	33
Assimilation_2b	101	1	<?xml version="1.0"?>\n<Clock xmlns:dt="urn:schemas-microsoft-com:datatypes"><Description dt:dt="string">E-Prime Primary Realtime Clock</Description><StartTime><Timestamp dt:dt="int">0</Timestamp><DateUtc dt:dt="string">2017-12-26T06:39:05Z</DateUtc></StartTime><FrequencyChanges><FrequencyChange><Frequency dt:dt="r8">2742343</Frequency><Timestamp dt:dt="r8">15765959310</Timestamp><Current dt:dt="r8">0</Current><DateUtc dt:dt="string">2017-12-26T06:39:05Z</DateUtc></FrequencyChange></FrequencyChanges></Clock>\n	Assimilation_2b-101-1	60.015	1.0.0.62	1	-1413574928	Professional	2.0.10.353	2.0.10.353	12-26-2017	26-Dec-17 6:39:05 AM	17:39:05	2.0.10.248	21	3	1	1																						f2proc1	explist					5							3	1	5				Thai_F2_maa315-2	exproc	f2List1	0		0	0	366425	0	6	2124	368549	0		0	-1	362425	g	1236	363661	F2	maa	2	315
Assimilation_2b	101	1	<?xml version="1.0"?>\n<Clock xmlns:dt="urn:schemas-microsoft-com:datatypes"><Description dt:dt="string">E-Prime Primary Realtime Clock</Description><StartTime><Timestamp dt:dt="int">0</Timestamp><DateUtc dt:dt="string">2017-12-26T06:39:05Z</DateUtc></StartTime><FrequencyChanges><FrequencyChange><Frequency dt:dt="r8">2742343</Frequency><Timestamp dt:dt="r8">15765959310</Timestamp><Current dt:dt="r8">0</Current><DateUtc dt:dt="string">2017-12-26T06:39:05Z</DateUtc></FrequencyChange></FrequencyChanges></Clock>\n	Assimilation_2b-101-1	60.015	1.0.0.62	1	-1413574928	Professional	2.0.10.353	2.0.10.353	12-26-2017	26-Dec-17 6:39:05 AM	17:39:05	2.0.10.248	21	3	1	1																						f2proc1	explist					6							8	1	6				Thai_F2_mii315-1	exproc	f2List1	0		0	-1	375422	0	7	1326	376748	0		0	-1	371423	g	1382	372805	F2	mii	1	315
Assimilation_2b	101	1	<?xml version="1.0"?>\n<Clock xmlns:dt="urn:schemas-microsoft-com:datatypes"><Description dt:dt="string">E-Prime Primary Realtime Clock</Description><StartTime><Timestamp dt:dt="int">0</Timestamp><DateUtc dt:dt="string">2017-12-26T06:39:05Z</DateUtc></StartTime><FrequencyChanges><FrequencyChange><Frequency dt:dt="r8">2742343</Frequency><Timestamp dt:dt="r8">15765959310</Timestamp><Current dt:dt="r8">0</Current><DateUtc dt:dt="string">2017-12-26T06:39:05Z</DateUtc></FrequencyChange></FrequencyChanges></Clock>\n	Assimilation_2b-101-1	60.015	1.0.0.62	1	-1413574928	Professional	2.0.10.353	2.0.10.353	12-26-2017	26-Dec-17 6:39:05 AM	17:39:05	2.0.10.248	21	3	1	1																						f2proc1	explist					7							5	1	7				Thai_F2_maa45-1	exproc	f2List1	0		0	-1	384420	0	3	3754	388174	0		0	-1	380420	g	2239	382659	F2	maa	1	45
Assimilation_2b	101	1	<?xml version="1.0"?>\n<Clock xmlns:dt="urn:schemas-microsoft-com:datatypes"><Description dt:dt="string">E-Prime Primary Realtime Clock</Description><StartTime><Timestamp dt:dt="int">0</Timestamp><DateUtc dt:dt="string">2017-12-26T06:39:05Z</DateUtc></StartTime><FrequencyChanges><FrequencyChange><Frequency dt:dt="r8">2742343</Frequency><Timestamp dt:dt="r8">15765959310</Timestamp><Current dt:dt="r8">0</Current><DateUtc dt:dt="string">2017-12-26T06:39:05Z</DateUtc></FrequencyChange></FrequencyChanges></Clock>\n	Assimilation_2b-101-1	60.015	1.0.0.62	1	-1413574928	Professional	2.0.10.353	2.0.10.353	12-26-2017	26-Dec-17 6:39:05 AM	17:39:05	2.0.10.248	21	3	1	1																						f2proc1	explist					8							1	1	8				Thai_F2_maa21-1	exproc	f2List1	0		0	-1	393418	0	7	1133	394551	0		0	-1	389418	h	1252	390670	F2	maa	1	21
Assimilation_2b	101	1	<?xml version="1.0"?>\n<Clock xmlns:dt="urn:schemas-microsoft-com:datatypes"><Description dt:dt="string">E-Prime Primary Realtime Clock</Description><StartTime><Timestamp dt:dt="int">0</Timestamp><DateUtc dt:dt="string">2017-12-26T06:39:05Z</DateUtc></StartTime><FrequencyChanges><FrequencyChange><Frequency dt:dt="r8">2742343</Frequency><Timestamp dt:dt="r8">15765959310</Timestamp><Current dt:dt="r8">0</Current><DateUtc dt:dt="string">2017-12-26T06:39:05Z</DateUtc></FrequencyChange></FrequencyChanges></Clock>\n	Assimilation_2b-101-1	60.015	1.0.0.62	1	-1413574928	Professional	2.0.10.353	2.0.10.353	12-26-2017	26-Dec-17 6:39:05 AM	17:39:05	2.0.10.248	21	3	1	1																						f2proc1	explist					9							6	1	9				Thai_F2_mii21-2	exproc	f2List1	0		0	0	402416	0	7	2219	404635	0		0	-1	398416	h	1382	399798	F2	mii	2	21
Assimilation_2b	101	1	<?xml version="1.0"?>\n<Clock xmlns:dt="urn:schemas-microsoft-com:datatypes"><Description dt:dt="string">E-Prime Primary Realtime Clock</Description><StartTime><Timestamp dt:dt="int">0</Timestamp><DateUtc dt:dt="string">2017-12-26T06:39:05Z</DateUtc></StartTime><FrequencyChanges><FrequencyChange><Frequency dt:dt="r8">2742343</Frequency><Timestamp dt:dt="r8">15765959310</Timestamp><Current dt:dt="r8">0</Current><DateUtc dt:dt="string">2017-12-26T06:39:05Z</DateUtc></FrequencyChange></FrequencyChanges></Clock>\n	Assimilation_2b-101-1	60.015	1.0.0.62	1	-1413574928	Professional	2.0.10.353	2.0.10.353	12-26-2017	26-Dec-17 6:39:05 AM	17:39:05	2.0.10.248	21	3	1	1																						f2proc1	explist					10							9	1	10				Thai_F2_mii33-3	exproc	f2List1	0		0	-1	411413	0	6	3041	414454	0		0	-1	407414	f	1062	408476	F2	mii	3	33
Assimilation_2b	101	1	<?xml version="1.0"?>\n<Clock xmlns:dt="urn:schemas-microsoft-com:datatypes"><Description dt:dt="string">E-Prime Primary Realtime Clock</Description><StartTime><Timestamp dt:dt="int">0</Timestamp><DateUtc dt:dt="string">2017-12-26T06:39:05Z</DateUtc></StartTime><FrequencyChanges><FrequencyChange><Frequency dt:dt="r8">2742343</Frequency><Timestamp dt:dt="r8">15765959310</Timestamp><Current dt:dt="r8">0</Current><DateUtc dt:dt="string">2017-12-26T06:39:05Z</DateUtc></FrequencyChange></FrequencyChanges></Clock>\n	Assimilation_2b-101-1	60.015	1.0.0.62	1	-1413574928	Professional	2.0.10.353	2.0.10.353	12-26-2017	26-Dec-17 6:39:05 AM	17:39:05	2.0.10.248	21	3	1	1																						f2proc1	explist					11							10	2	11				Thai_F2_mii45-2	exproc	f2List1	0		0	-1	420411	0	6	396	420807	0		0	-1	416411	g	1191	417602	F2	mii	2	45
Assimilation_2b	101	1	<?xml version="1.0"?>\n<Clock xmlns:dt="urn:schemas-microsoft-com:datatypes"><Description dt:dt="string">E-Prime Primary Realtime Clock</Description><StartTime><Timestamp dt:dt="int">0</Timestamp><DateUtc dt:dt="string">2017-12-26T06:39:05Z</DateUtc></StartTime><FrequencyChanges><FrequencyChange><Frequency dt:dt="r8">2742343</Frequency><Timestamp dt:dt="r8">15765959310</Timestamp><Current dt:dt="r8">0</Current><DateUtc dt:dt="string">2017-12-26T06:39:05Z</DateUtc></FrequencyChange></FrequencyChanges></Clock>\n	Assimilation_2b-101-1	60.015	1.0.0.62	1	-1413574928	Professional	2.0.10.353	2.0.10.353	12-26-2017	26-Dec-17 6:39:05 AM	17:39:05	2.0.10.248	21	3	1	1																						f2proc1	explist					12							7	2	12				Thai_F2_mii241-2	exproc	f2List1	0		0	-1	429409	0	5	2358	431767	1		0	-1	425409		0	0	F2	mii	2	241
Assimilation_2b	101	1	<?xml version="1.0"?>\n<Clock xmlns:dt="urn:schemas-microsoft-com:datatypes"><Description dt:dt="string">E-Prime Primary Realtime Clock</Description><StartTime><Timestamp dt:dt="int">0</Timestamp><DateUtc dt:dt="string">2017-12-26T06:39:05Z</DateUtc></StartTime><FrequencyChanges><FrequencyChange><Frequency dt:dt="r8">2742343</Frequency><Timestamp dt:dt="r8">15765959310</Timestamp><Current dt:dt="r8">0</Current><DateUtc dt:dt="string">2017-12-26T06:39:05Z</DateUtc></FrequencyChange></FrequencyChanges></Clock>\n	Assimilation_2b-101-1	60.015	1.0.0.62	1	-1413574928	Professional	2.0.10.353	2.0.10.353	12-26-2017	26-Dec-17 6:39:05 AM	17:39:05	2.0.10.248	21	3	1	1																						f2proc1	explist					13							5	2	13				Thai_F2_maa45-1	exproc	f2List1	0		0	0	438407	0	7	372	438779	0		0	-1	434407	g	1516	435923	F2	maa	1	45
Assimilation_2b	101	1	<?xml version="1.0"?>\n<Clock xmlns:dt="urn:schemas-microsoft-com:datatypes"><Description dt:dt="string">E-Prime Primary Realtime Clock</Description><StartTime><Timestamp dt:dt="int">0</Timestamp><DateUtc dt:dt="string">2017-12-26T06:39:05Z</DateUtc></StartTime><FrequencyChanges><FrequencyChange><Frequency dt:dt="r8">2742343</Frequency><Timestamp dt:dt="r8">15765959310</Timestamp><Current dt:dt="r8">0</Current><DateUtc dt:dt="string">2017-12-26T06:39:05Z</DateUtc></FrequencyChange></FrequencyChanges></Clock>\n	Assimilation_2b-101-1	60.015	1.0.0.62	1	-1413574928	Professional	2.0.10.353	2.0.10.353	12-26-2017	26-Dec-17 6:39:05 AM	17:39:05	2.0.10.248	21	3	1	1																						f2proc1	explist					14							3	2	14				Thai_F2_maa315-2	exproc	f2List1	0		0	-1	447404	0	7	836	448240	0		0	-1	443405	g	1573	444978	F2	maa	2	315
Assimilation_2b	101	1	<?xml version="1.0"?>\n<Clock xmlns:dt="urn:schemas-microsoft-com:datatypes"><Description dt:dt="string">E-Prime Primary Realtime Clock</Description><StartTime><Timestamp dt:dt="int">0</Timestamp><DateUtc dt:dt="string">2017-12-26T06:39:05Z</DateUtc></StartTime><FrequencyChanges><FrequencyChange><Frequency dt:dt="r8">2742343</Frequency><Timestamp dt:dt="r8">15765959310</Timestamp><Current dt:dt="r8">0</Current><DateUtc dt:dt="string">2017-12-26T06:39:05Z</DateUtc></FrequencyChange></FrequencyChanges></Clock>\n	Assimilation_2b-101-1	60.015	1.0.0.62	1	-1413574928	Professional	2.0.10.353	2.0.10.353	12-26-2017	26-Dec-17 6:39:05 AM	17:39:05	2.0.10.248	21	3	1	1																						f2proc1	explist					15							6	2	15				Thai_F2_mii21-2	exproc	f2List1	0		0	-1	456402	0	5	540	456942	0		0	-1	452402	h	1233	453635	F2	mii	2	21
Assimilation_2b	101	1	<?xml version="1.0"?>\n<Clock xmlns:dt="urn:schemas-microsoft-com:datatypes"><Description dt:dt="string">E-Prime Primary Realtime Clock</Description><StartTime><Timestamp dt:dt="int">0</Timestamp><DateUtc dt:dt="string">2017-12-26T06:39:05Z</DateUtc></StartTime><FrequencyChanges><FrequencyChange><Frequency dt:dt="r8">2742343</Frequency><Timestamp dt:dt="r8">15765959310</Timestamp><Current dt:dt="r8">0</Current><DateUtc dt:dt="string">2017-12-26T06:39:05Z</DateUtc></FrequencyChange></FrequencyChanges></Clock>\n	Assimilation_2b-101-1	60.015	1.0.0.62	1	-1413574928	Professional	2.0.10.353	2.0.10.353	12-26-2017	26-Dec-17 6:39:05 AM	17:39:05	2.0.10.248	21	3	1	1																						f2proc1	explist					16							1	2	16				Thai_F2_maa21-1	exproc	f2List1	0		0	-1	465400	0	7	1774	467174	0		0	-1	461400	h	1945	463345	F2	maa	1	21
Assimilation_2b	101	1	<?xml version="1.0"?>\n<Clock xmlns:dt="urn:schemas-microsoft-com:datatypes"><Description dt:dt="string">E-Prime Primary Realtime Clock</Description><StartTime><Timestamp dt:dt="int">0</Timestamp><DateUtc dt:dt="string">2017-12-26T06:39:05Z</DateUtc></StartTime><FrequencyChanges><FrequencyChange><Frequency dt:dt="r8">2742343</Frequency><Timestamp dt:dt="r8">15765959310</Timestamp><Current dt:dt="r8">0</Current><DateUtc dt:dt="string">2017-12-26T06:39:05Z</DateUtc></FrequencyChange></FrequencyChanges></Clock>\n	Assimilation_2b-101-1	60.015	1.0.0.62	1	-1413574928	Professional	2.0.10.353	2.0.10.353	12-26-2017	26-Dec-17 6:39:05 AM	17:39:05	2.0.10.248	21	3	1	1																						f2proc1	explist					17							9	2	17				Thai_F2_mii33-3	exproc	f2List1	0		0	0	474398	0	7	2579	476977	0		0	-1	470398	f	1277	471675	F2	mii	3	33
Assimilation_2b	101	1	<?xml version="1.0"?>\n<Clock xmlns:dt="urn:schemas-microsoft-com:datatypes"><Description dt:dt="string">E-Prime Primary Realtime Clock</Description><StartTime><Timestamp dt:dt="int">0</Timestamp><DateUtc dt:dt="string">2017-12-26T06:39:05Z</DateUtc></StartTime><FrequencyChanges><FrequencyChange><Frequency dt:dt="r8">2742343</Frequency><Timestamp dt:dt="r8">15765959310</Timestamp><Current dt:dt="r8">0</Current><DateUtc dt:dt="string">2017-12-26T06:39:05Z</DateUtc></FrequencyChange></FrequencyChanges></Clock>\n	Assimilation_2b-101-1	60.015	1.0.0.62	1	-1413574928	Professional	2.0.10.353	2.0.10.353	12-26-2017	26-Dec-17 6:39:05 AM	17:39:05	2.0.10.248	21	3	1	1																						f2proc1	explist					18							8	2	18				Thai_F2_mii315-1	exproc	f2List1	0		0	-1	483395	0	7	1883	485278	0		0	-1	479396	g	1457	480853	F2	mii	1	315
Assimilation_2b	101	1	<?xml version="1.0"?>\n<Clock xmlns:dt="urn:schemas-microsoft-com:datatypes"><Description dt:dt="string">E-Prime Primary Realtime Clock</Description><StartTime><Timestamp dt:dt="int">0</Timestamp><DateUtc dt:dt="string">2017-12-26T06:39:05Z</DateUtc></StartTime><FrequencyChanges><FrequencyChange><Frequency dt:dt="r8">2742343</Frequency><Timestamp dt:dt="r8">15765959310</Timestamp><Current dt:dt="r8">0</Current><DateUtc dt:dt="string">2017-12-26T06:39:05Z</DateUtc></FrequencyChange></FrequencyChanges></Clock>\n	Assimilation_2b-101-1	60.015	1.0.0.62	1	-1413574928	Professional	2.0.10.353	2.0.10.353	12-26-2017	26-Dec-17 6:39:05 AM	17:39:05	2.0.10.248	21	3	1	1																						f2proc1	explist					19							4	2	19				Thai_F2_maa33-2	exproc	f2List1	0		0	-1	492393	0	7	1467	493860	0		0	-1	488393	f	3728	492121	F2	maa	2	33
Assimilation_2b	101	1	<?xml version="1.0"?>\n<Clock xmlns:dt="urn:schemas-microsoft-com:datatypes"><Description dt:dt="string">E-Prime Primary Realtime Clock</Description><StartTime><Timestamp dt:dt="int">0</Timestamp><DateUtc dt:dt="string">2017-12-26T06:39:05Z</DateUtc></StartTime><FrequencyChanges><FrequencyChange><Frequency dt:dt="r8">2742343</Frequency><Timestamp dt:dt="r8">15765959310</Timestamp><Current dt:dt="r8">0</Current><DateUtc dt:dt="string">2017-12-26T06:39:05Z</DateUtc></FrequencyChange></FrequencyChanges></Clock>\n	Assimilation_2b-101-1	60.015	1.0.0.62	1	-1413574928	Professional	2.0.10.353	2.0.10.353	12-26-2017	26-Dec-17 6:39:05 AM	17:39:05	2.0.10.248	21	3	1	1																						f2proc1	explist					20							2	2	20				Thai_F2_maa241-3	exproc	f2List1	1		0	-1	501391	0		0	0	0		0	-1	497391	j	1727	499118	F2	maa	3	241
Assimilation_2b	101	1	<?xml version="1.0"?>\n<Clock xmlns:dt="urn:schemas-microsoft-com:datatypes"><Description dt:dt="string">E-Prime Primary Realtime Clock</Description><StartTime><Timestamp dt:dt="int">0</Timestamp><DateUtc dt:dt="string">2017-12-26T06:39:05Z</DateUtc></StartTime><FrequencyChanges><FrequencyChange><Frequency dt:dt="r8">2742343</Frequency><Timestamp dt:dt="r8">15765959310</Timestamp><Current dt:dt="r8">0</Current><DateUtc dt:dt="string">2017-12-26T06:39:05Z</DateUtc></FrequencyChange></FrequencyChanges></Clock>\n	Assimilation_2b-101-1	60.015	1.0.0.62	1	-1413574928	Professional	2.0.10.353	2.0.10.353	12-26-2017	26-Dec-17 6:39:05 AM	17:39:05	2.0.10.248	21	3	1	1																						f2proc1	explist					21							7	3	21				Thai_F2_mii241-2	exproc	f2List1	0		0	-1	510505	0	7	659	511164	0		0	-1	506505	f	1273	507778	F2	mii	2	241
Assimilation_2b	101	1	<?xml version="1.0"?>\n<Clock xmlns:dt="urn:schemas-microsoft-com:datatypes"><Description dt:dt="string">E-Prime Primary Realtime Clock</Description><StartTime><Timestamp dt:dt="int">0</Timestamp><DateUtc dt:dt="string">2017-12-26T06:39:05Z</DateUtc></StartTime><FrequencyChanges><FrequencyChange><Frequency dt:dt="r8">2742343</Frequency><Timestamp dt:dt="r8">15765959310</Timestamp><Current dt:dt="r8">0</Current><DateUtc dt:dt="string">2017-12-26T06:39:05Z</DateUtc></FrequencyChange></FrequencyChanges></Clock>\n	Assimilation_2b-101-1	60.015	1.0.0.62	1	-1413574928	Professional	2.0.10.353	2.0.10.353	12-26-2017	26-Dec-17 6:39:05 AM	17:39:05	2.0.10.248	21	3	1	1																						f2proc1	explist					22							5	3	22				Thai_F2_maa45-1	exproc	f2List1	0		0	-1	519503	0	6	2880	522383	0		0	-1	515503	g	1139	516642	F2	maa	1	45
Assimilation_2b	101	1	<?xml version="1.0"?>\n<Clock xmlns:dt="urn:schemas-microsoft-com:datatypes"><Description dt:dt="string">E-Prime Primary Realtime Clock</Description><StartTime><Timestamp dt:dt="int">0</Timestamp><DateUtc dt:dt="string">2017-12-26T06:39:05Z</DateUtc></StartTime><FrequencyChanges><FrequencyChange><Frequency dt:dt="r8">2742343</Frequency><Timestamp dt:dt="r8">15765959310</Timestamp><Current dt:dt="r8">0</Current><DateUtc dt:dt="string">2017-12-26T06:39:05Z</DateUtc></FrequencyChange></FrequencyChanges></Clock>\n	Assimilation_2b-101-1	60.015	1.0.0.62	1	-1413574928	Professional	2.0.10.353	2.0.10.353	12-26-2017	26-Dec-17 6:39:05 AM	17:39:05	2.0.10.248	21	3	1	1																						f2proc1	explist					23							1	3	23				Thai_F2_maa21-1	exproc	f2List1	0		0	0	528501	0	7	2654	531155	0		0	-1	524501	h	901	525402	F2	maa	1	21
Assimilation_2b	101	1	<?xml version="1.0"?>\n<Clock xmlns:dt="urn:schemas-microsoft-com:datatypes"><Description dt:dt="string">E-Prime Primary Realtime Clock</Description><StartTime><Timestamp dt:dt="int">0</Timestamp><DateUtc dt:dt="string">2017-12-26T06:39:05Z</DateUtc></StartTime><FrequencyChanges><FrequencyChange><Frequency dt:dt="r8">2742343</Frequency><Timestamp dt:dt="r8">15765959310</Timestamp><Current dt:dt="r8">0</Current><DateUtc dt:dt="string">2017-12-26T06:39:05Z</DateUtc></FrequencyChange></FrequencyChanges></Clock>\n	Assimilation_2b-101-1	60.015	1.0.0.62	1	-1413574928	Professional	2.0.10.353	2.0.10.353	12-26-2017	26-Dec-17 6:39:05 AM	17:39:05	2.0.10.248	21	3	1	1																						f2proc1	explist					24							3	3	24				Thai_F2_maa315-2	exproc	f2List1	0		1	-1	537498	0	7	1134	538632	0		0	-1	533499	g	1827	535326	F2	maa	2	315
Assimilation_2b	101	1	<?xml version="1.0"?>\n<Clock xmlns:dt="urn:schemas-microsoft-com:datatypes"><Description dt:dt="string">E-Prime Primary Realtime Clock</Description><StartTime><Timestamp dt:dt="int">0</Timestamp><DateUtc dt:dt="string">2017-12-26T06:39:05Z</DateUtc></StartTime><FrequencyChanges><FrequencyChange><Frequency dt:dt="r8">2742343</Frequency><Timestamp dt:dt="r8">15765959310</Timestamp><Current dt:dt="r8">0</Current><DateUtc dt:dt="string">2017-12-26T06:39:05Z</DateUtc></FrequencyChange></FrequencyChanges></Clock>\n	Assimilation_2b-101-1	60.015	1.0.0.62	1	-1413574928	Professional	2.0.10.353	2.0.10.353	12-26-2017	26-Dec-17 6:39:05 AM	17:39:05	2.0.10.248	21	3	1	1																						f2proc1	explist					25							10	3	25				Thai_F2_mii45-2	exproc	f2List1	0		0	-1	546496	0	7	1219	547715	0		0	-1	542496	g	1176	543672	F2	mii	2	45
Assimilation_2b	101	1	<?xml version="1.0"?>\n<Clock xmlns:dt="urn:schemas-microsoft-com:datatypes"><Description dt:dt="string">E-Prime Primary Realtime Clock</Description><StartTime><Timestamp dt:dt="int">0</Timestamp><DateUtc dt:dt="string">2017-12-26T06:39:05Z</DateUtc></StartTime><FrequencyChanges><FrequencyChange><Frequency dt:dt="r8">2742343</Frequency><Timestamp dt:dt="r8">15765959310</Timestamp><Current dt:dt="r8">0</Current><DateUtc dt:dt="string">2017-12-26T06:39:05Z</DateUtc></FrequencyChange></FrequencyChanges></Clock>\n	Assimilation_2b-101-1	60.015	1.0.0.62	1	-1413574928	Professional	2.0.10.353	2.0.10.353	12-26-2017	26-Dec-17 6:39:05 AM	17:39:05	2.0.10.248	21	3	1	1																						f2proc1	explist					26							9	3	26				Thai_F2_mii33-3	exproc	f2List1	0		0	-1	555494	0	7	1105	556599	0		0	-1	551494	f	1495	552989	F2	mii	3	33
Assimilation_2b	101	1	<?xml version="1.0"?>\n<Clock xmlns:dt="urn:schemas-microsoft-com:datatypes"><Description dt:dt="string">E-Prime Primary Realtime Clock</Description><StartTime><Timestamp dt:dt="int">0</Timestamp><DateUtc dt:dt="string">2017-12-26T06:39:05Z</DateUtc></StartTime><FrequencyChanges><FrequencyChange><Frequency dt:dt="r8">2742343</Frequency><Timestamp dt:dt="r8">15765959310</Timestamp><Current dt:dt="r8">0</Current><DateUtc dt:dt="string">2017-12-26T06:39:05Z</DateUtc></FrequencyChange></FrequencyChanges></Clock>\n	Assimilation_2b-101-1	60.015	1.0.0.62	1	-1413574928	Professional	2.0.10.353	2.0.10.353	12-26-2017	26-Dec-17 6:39:05 AM	17:39:05	2.0.10.248	21	3	1	1																						f2proc1	explist					27							8	3	27				Thai_F2_mii315-1	exproc	f2List1	0		0	0	564492	0	7	440	564932	0		0	-1	560492	g	1416	561908	F2	mii	1	315
Assimilation_2b	101	1	<?xml version="1.0"?>\n<Clock xmlns:dt="urn:schemas-microsoft-com:datatypes"><Description dt:dt="string">E-Prime Primary Realtime Clock</Description><StartTime><Timestamp dt:dt="int">0</Timestamp><DateUtc dt:dt="string">2017-12-26T06:39:05Z</DateUtc></StartTime><FrequencyChanges><FrequencyChange><Frequency dt:dt="r8">2742343</Frequency><Timestamp dt:dt="r8">15765959310</Timestamp><Current dt:dt="r8">0</Current><DateUtc dt:dt="string">2017-12-26T06:39:05Z</DateUtc></FrequencyChange></FrequencyChanges></Clock>\n	Assimilation_2b-101-1	60.015	1.0.0.62	1	-1413574928	Professional	2.0.10.353	2.0.10.353	12-26-2017	26-Dec-17 6:39:05 AM	17:39:05	2.0.10.248	21	3	1	1																						f2proc1	explist					28							4	3	28				Thai_F2_maa33-2	exproc	f2List1	0		1	-1	573489	0	7	871	574360	0		0	-1	569490	f	1439	570929	F2	maa	2	33
Assimilation_2b	101	1	<?xml version="1.0"?>\n<Clock xmlns:dt="urn:schemas-microsoft-com:datatypes"><Description dt:dt="string">E-Prime Primary Realtime Clock</Description><StartTime><Timestamp dt:dt="int">0</Timestamp><DateUtc dt:dt="string">2017-12-26T06:39:05Z</DateUtc></StartTime><FrequencyChanges><FrequencyChange><Frequency dt:dt="r8">2742343</Frequency><Timestamp dt:dt="r8">15765959310</Timestamp><Current dt:dt="r8">0</Current><DateUtc dt:dt="string">2017-12-26T06:39:05Z</DateUtc></FrequencyChange></FrequencyChanges></Clock>\n	Assimilation_2b-101-1	60.015	1.0.0.62	1	-1413574928	Professional	2.0.10.353	2.0.10.353	12-26-2017	26-Dec-17 6:39:05 AM	17:39:05	2.0.10.248	21	3	1	1																						f2proc1	explist					29							6	3	29				Thai_F2_mii21-2	exproc	f2List1	0		0	-1	582487	0	7	1314	583801	0		0	-1	578487	h	1121	579608	F2	mii	2	21
Assimilation_2b	101	1	<?xml version="1.0"?>\n<Clock xmlns:dt="urn:schemas-microsoft-com:datatypes"><Description dt:dt="string">E-Prime Primary Realtime Clock</Description><StartTime><Timestamp dt:dt="int">0</Timestamp><DateUtc dt:dt="string">2017-12-26T06:39:05Z</DateUtc></StartTime><FrequencyChanges><FrequencyChange><Frequency dt:dt="r8">2742343</Frequency><Timestamp dt:dt="r8">15765959310</Timestamp><Current dt:dt="r8">0</Current><DateUtc dt:dt="string">2017-12-26T06:39:05Z</DateUtc></FrequencyChange></FrequencyChanges></Clock>\n	Assimilation_2b-101-1	60.015	1.0.0.62	1	-1413574928	Professional	2.0.10.353	2.0.10.353	12-26-2017	26-Dec-17 6:39:05 AM	17:39:05	2.0.10.248	21	3	1	1																						f2proc1	explist					30							2	3	30				Thai_F2_maa241-3	exproc	f2List1	0		0	-1	591485	0	5	1935	593420	0		0	-1	587485	f	2711	590196	F2	maa	3	241
Assimilation_2b	101	1	<?xml version="1.0"?>\n<Clock xmlns:dt="urn:schemas-microsoft-com:datatypes"><Description dt:dt="string">E-Prime Primary Realtime Clock</Description><StartTime><Timestamp dt:dt="int">0</Timestamp><DateUtc dt:dt="string">2017-12-26T06:39:05Z</DateUtc></StartTime><FrequencyChanges><FrequencyChange><Frequency dt:dt="r8">2742343</Frequency><Timestamp dt:dt="r8">15765959310</Timestamp><Current dt:dt="r8">0</Current><DateUtc dt:dt="string">2017-12-26T06:39:05Z</DateUtc></FrequencyChange></FrequencyChanges></Clock>\n	Assimilation_2b-101-1	60.015	1.0.0.62	1	-1413574928	Professional	2.0.10.353	2.0.10.353	12-26-2017	26-Dec-17 6:39:05 AM	17:39:05	2.0.10.248	22	1	1	2																						f1proc1	explist					1	4	1	1										Thai_F1_maa33-4	exproc	f1List1	0		0	-1	602299	0	3	1570	603869	0		0	-1	598299	h	1713	600012	F1	maa	4	33
Assimilation_2b	101	1	<?xml version="1.0"?>\n<Clock xmlns:dt="urn:schemas-microsoft-com:datatypes"><Description dt:dt="string">E-Prime Primary Realtime Clock</Description><StartTime><Timestamp dt:dt="int">0</Timestamp><DateUtc dt:dt="string">2017-12-26T06:39:05Z</DateUtc></StartTime><FrequencyChanges><FrequencyChange><Frequency dt:dt="r8">2742343</Frequency><Timestamp dt:dt="r8">15765959310</Timestamp><Current dt:dt="r8">0</Current><DateUtc dt:dt="string">2017-12-26T06:39:05Z</DateUtc></FrequencyChange></FrequencyChanges></Clock>\n	Assimilation_2b-101-1	60.015	1.0.0.62	1	-1413574928	Professional	2.0.10.353	2.0.10.353	12-26-2017	26-Dec-17 6:39:05 AM	17:39:05	2.0.10.248	22	1	1	2																						f1proc1	explist					2	3	1	2										Thai_F1_maa315-2	exproc	f1List1	0		0	0	611297	0	7	307	611604	0		0	-1	607297	g	1066	608363	F1	maa	2	315
Assimilation_2b	101	1	<?xml version="1.0"?>\n<Clock xmlns:dt="urn:schemas-microsoft-com:datatypes"><Description dt:dt="string">E-Prime Primary Realtime Clock</Description><StartTime><Timestamp dt:dt="int">0</Timestamp><DateUtc dt:dt="string">2017-12-26T06:39:05Z</DateUtc></StartTime><FrequencyChanges><FrequencyChange><Frequency dt:dt="r8">2742343</Frequency><Timestamp dt:dt="r8">15765959310</Timestamp><Current dt:dt="r8">0</Current><DateUtc dt:dt="string">2017-12-26T06:39:05Z</DateUtc></FrequencyChange></FrequencyChanges></Clock>\n	Assimilation_2b-101-1	60.015	1.0.0.62	1	-1413574928	Professional	2.0.10.353	2.0.10.353	12-26-2017	26-Dec-17 6:39:05 AM	17:39:05	2.0.10.248	22	1	1	2																						f1proc1	explist					3	7	1	3										Thai_F1_mii241-1	exproc	f1List1	0		0	-1	620294	0	4	2701	622995	0		0	-1	616295	j	1769	618064	F1	mii	1	241
Assimilation_2b	101	1	<?xml version="1.0"?>\n<Clock xmlns:dt="urn:schemas-microsoft-com:datatypes"><Description dt:dt="string">E-Prime Primary Realtime Clock</Description><StartTime><Timestamp dt:dt="int">0</Timestamp><DateUtc dt:dt="string">2017-12-26T06:39:05Z</DateUtc></StartTime><FrequencyChanges><FrequencyChange><Frequency dt:dt="r8">2742343</Frequency><Timestamp dt:dt="r8">15765959310</Timestamp><Current dt:dt="r8">0</Current><DateUtc dt:dt="string">2017-12-26T06:39:05Z</DateUtc></FrequencyChange></FrequencyChanges></Clock>\n	Assimilation_2b-101-1	60.015	1.0.0.62	1	-1413574928	Professional	2.0.10.353	2.0.10.353	12-26-2017	26-Dec-17 6:39:05 AM	17:39:05	2.0.10.248	22	1	1	2																						f1proc1	explist					4	6	1	4										Thai_F1_mii21-1	exproc	f1List1	0		0	-1	629292	0	7	526	629818	0		0	-1	625292	h	1134	626426	F1	mii	1	21
Assimilation_2b	101	1	<?xml version="1.0"?>\n<Clock xmlns:dt="urn:schemas-microsoft-com:datatypes"><Description dt:dt="string">E-Prime Primary Realtime Clock</Description><StartTime><Timestamp dt:dt="int">0</Timestamp><DateUtc dt:dt="string">2017-12-26T06:39:05Z</DateUtc></StartTime><FrequencyChanges><FrequencyChange><Frequency dt:dt="r8">2742343</Frequency><Timestamp dt:dt="r8">15765959310</Timestamp><Current dt:dt="r8">0</Current><DateUtc dt:dt="string">2017-12-26T06:39:05Z</DateUtc></FrequencyChange></FrequencyChanges></Clock>\n	Assimilation_2b-101-1	60.015	1.0.0.62	1	-1413574928	Professional	2.0.10.353	2.0.10.353	12-26-2017	26-Dec-17 6:39:05 AM	17:39:05	2.0.10.248	22	1	1	2																						f1proc1	explist					5	9	1	5										Thai_F1_mii33-2	exproc	f1List1	0		0	-1	638290	0	6	1960	640250	0		0	-1	634290	f	1165	635455	F1	mii	2	33
Assimilation_2b	101	1	<?xml version="1.0"?>\n<Clock xmlns:dt="urn:schemas-microsoft-com:datatypes"><Description dt:dt="string">E-Prime Primary Realtime Clock</Description><StartTime><Timestamp dt:dt="int">0</Timestamp><DateUtc dt:dt="string">2017-12-26T06:39:05Z</DateUtc></StartTime><FrequencyChanges><FrequencyChange><Frequency dt:dt="r8">2742343</Frequency><Timestamp dt:dt="r8">15765959310</Timestamp><Current dt:dt="r8">0</Current><DateUtc dt:dt="string">2017-12-26T06:39:05Z</DateUtc></FrequencyChange></FrequencyChanges></Clock>\n	Assimilation_2b-101-1	60.015	1.0.0.62	1	-1413574928	Professional	2.0.10.353	2.0.10.353	12-26-2017	26-Dec-17 6:39:05 AM	17:39:05	2.0.10.248	22	1	1	2																						f1proc1	explist					6	8	1	6										Thai_F1_mii315-2	exproc	f1List1	0		0	0	647288	0	7	1456	648744	0		0	-1	643288	g	1098	644386	F1	mii	2	315
Assimilation_2b	101	1	<?xml version="1.0"?>\n<Clock xmlns:dt="urn:schemas-microsoft-com:datatypes"><Description dt:dt="string">E-Prime Primary Realtime Clock</Description><StartTime><Timestamp dt:dt="int">0</Timestamp><DateUtc dt:dt="string">2017-12-26T06:39:05Z</DateUtc></StartTime><FrequencyChanges><FrequencyChange><Frequency dt:dt="r8">2742343</Frequency><Timestamp dt:dt="r8">15765959310</Timestamp><Current dt:dt="r8">0</Current><DateUtc dt:dt="string">2017-12-26T06:39:05Z</DateUtc></FrequencyChange></FrequencyChanges></Clock>\n	Assimilation_2b-101-1	60.015	1.0.0.62	1	-1413574928	Professional	2.0.10.353	2.0.10.353	12-26-2017	26-Dec-17 6:39:05 AM	17:39:05	2.0.10.248	22	1	1	2																						f1proc1	explist					7	2	1	7										Thai_F1_maa241-1	exproc	f1List1	0		1	-1	656285	0	5	1535	657820	0		0	-1	652286	f	2262	654548	F1	maa	1	241
Assimilation_2b	101	1	<?xml version="1.0"?>\n<Clock xmlns:dt="urn:schemas-microsoft-com:datatypes"><Description dt:dt="string">E-Prime Primary Realtime Clock</Description><StartTime><Timestamp dt:dt="int">0</Timestamp><DateUtc dt:dt="string">2017-12-26T06:39:05Z</DateUtc></StartTime><FrequencyChanges><FrequencyChange><Frequency dt:dt="r8">2742343</Frequency><Timestamp dt:dt="r8">15765959310</Timestamp><Current dt:dt="r8">0</Current><DateUtc dt:dt="string">2017-12-26T06:39:05Z</DateUtc></FrequencyChange></FrequencyChanges></Clock>\n	Assimilation_2b-101-1	60.015	1.0.0.62	1	-1413574928	Professional	2.0.10.353	2.0.10.353	12-26-2017	26-Dec-17 6:39:05 AM	17:39:05	2.0.10.248	22	1	1	2																						f1proc1	explist					8	1	1	8										Thai_F1_maa21-1	exproc	f1List1	0		0	-1	665283	0	7	2771	668054	0		0	-1	661283	h	1036	662319	F1	maa	1	21
Assimilation_2b	101	1	<?xml version="1.0"?>\n<Clock xmlns:dt="urn:schemas-microsoft-com:datatypes"><Description dt:dt="string">E-Prime Primary Realtime Clock</Description><StartTime><Timestamp dt:dt="int">0</Timestamp><DateUtc dt:dt="string">2017-12-26T06:39:05Z</DateUtc></StartTime><FrequencyChanges><FrequencyChange><Frequency dt:dt="r8">2742343</Frequency><Timestamp dt:dt="r8">15765959310</Timestamp><Current dt:dt="r8">0</Current><DateUtc dt:dt="string">2017-12-26T06:39:05Z</DateUtc></FrequencyChange></FrequencyChanges></Clock>\n	Assimilation_2b-101-1	60.015	1.0.0.62	1	-1413574928	Professional	2.0.10.353	2.0.10.353	12-26-2017	26-Dec-17 6:39:05 AM	17:39:05	2.0.10.248	22	1	1	2																						f1proc1	explist					9	5	1	9										Thai_F1_maa45-3	exproc	f1List1	0		0	-1	674281	0	7	1537	675818	0		0	-1	670281	g	1022	671303	F1	maa	3	45
Assimilation_2b	101	1	<?xml version="1.0"?>\n<Clock xmlns:dt="urn:schemas-microsoft-com:datatypes"><Description dt:dt="string">E-Prime Primary Realtime Clock</Description><StartTime><Timestamp dt:dt="int">0</Timestamp><DateUtc dt:dt="string">2017-12-26T06:39:05Z</DateUtc></StartTime><FrequencyChanges><FrequencyChange><Frequency dt:dt="r8">2742343</Frequency><Timestamp dt:dt="r8">15765959310</Timestamp><Current dt:dt="r8">0</Current><DateUtc dt:dt="string">2017-12-26T06:39:05Z</DateUtc></FrequencyChange></FrequencyChanges></Clock>\n	Assimilation_2b-101-1	60.015	1.0.0.62	1	-1413574928	Professional	2.0.10.353	2.0.10.353	12-26-2017	26-Dec-17 6:39:05 AM	17:39:05	2.0.10.248	22	1	1	2																						f1proc1	explist					10	10	1	10										Thai_F1_mii45-1	exproc	f1List1	0		0	0	683279	0	7	3200	686479	0		0	-1	679279	g	1136	680415	F1	mii	1	45
Assimilation_2b	101	1	<?xml version="1.0"?>\n<Clock xmlns:dt="urn:schemas-microsoft-com:datatypes"><Description dt:dt="string">E-Prime Primary Realtime Clock</Description><StartTime><Timestamp dt:dt="int">0</Timestamp><DateUtc dt:dt="string">2017-12-26T06:39:05Z</DateUtc></StartTime><FrequencyChanges><FrequencyChange><Frequency dt:dt="r8">2742343</Frequency><Timestamp dt:dt="r8">15765959310</Timestamp><Current dt:dt="r8">0</Current><DateUtc dt:dt="string">2017-12-26T06:39:05Z</DateUtc></FrequencyChange></FrequencyChanges></Clock>\n	Assimilation_2b-101-1	60.015	1.0.0.62	1	-1413574928	Professional	2.0.10.353	2.0.10.353	12-26-2017	26-Dec-17 6:39:05 AM	17:39:05	2.0.10.248	22	1	1	2																						f1proc1	explist					11	8	2	11										Thai_F1_mii315-2	exproc	f1List1	0		0	-1	692276	0	3	3047	695323	0		0	-1	688277	h	3244	691521	F1	mii	2	315
Assimilation_2b	101	1	<?xml version="1.0"?>\n<Clock xmlns:dt="urn:schemas-microsoft-com:datatypes"><Description dt:dt="string">E-Prime Primary Realtime Clock</Description><StartTime><Timestamp dt:dt="int">0</Timestamp><DateUtc dt:dt="string">2017-12-26T06:39:05Z</DateUtc></StartTime><FrequencyChanges><FrequencyChange><Frequency dt:dt="r8">2742343</Frequency><Timestamp dt:dt="r8">15765959310</Timestamp><Current dt:dt="r8">0</Current><DateUtc dt:dt="string">2017-12-26T06:39:05Z</DateUtc></FrequencyChange></FrequencyChanges></Clock>\n	Assimilation_2b-101-1	60.015	1.0.0.62	1	-1413574928	Professional	2.0.10.353	2.0.10.353	12-26-2017	26-Dec-17 6:39:05 AM	17:39:05	2.0.10.248	22	1	1	2																						f1proc1	explist					12	3	2	12										Thai_F1_maa315-2	exproc	f1List1	0		0	-1	701274	0	7	1478	702752	0		0	-1	697274	g	961	698235	F1	maa	2	315
Assimilation_2b	101	1	<?xml version="1.0"?>\n<Clock xmlns:dt="urn:schemas-microsoft-com:datatypes"><Description dt:dt="string">E-Prime Primary Realtime Clock</Description><StartTime><Timestamp dt:dt="int">0</Timestamp><DateUtc dt:dt="string">2017-12-26T06:39:05Z</DateUtc></StartTime><FrequencyChanges><FrequencyChange><Frequency dt:dt="r8">2742343</Frequency><Timestamp dt:dt="r8">15765959310</Timestamp><Current dt:dt="r8">0</Current><DateUtc dt:dt="string">2017-12-26T06:39:05Z</DateUtc></FrequencyChange></FrequencyChanges></Clock>\n	Assimilation_2b-101-1	60.015	1.0.0.62	1	-1413574928	Professional	2.0.10.353	2.0.10.353	12-26-2017	26-Dec-17 6:39:05 AM	17:39:05	2.0.10.248	22	1	1	2																						f1proc1	explist					13	4	2	13										Thai_F1_maa33-4	exproc	f1List1	0		0	-1	710272	0	7	2109	712381	0		0	-1	706272	f	1482	707754	F1	maa	4	33
Assimilation_2b	101	1	<?xml version="1.0"?>\n<Clock xmlns:dt="urn:schemas-microsoft-com:datatypes"><Description dt:dt="string">E-Prime Primary Realtime Clock</Description><StartTime><Timestamp dt:dt="int">0</Timestamp><DateUtc dt:dt="string">2017-12-26T06:39:05Z</DateUtc></StartTime><FrequencyChanges><FrequencyChange><Frequency dt:dt="r8">2742343</Frequency><Timestamp dt:dt="r8">15765959310</Timestamp><Current dt:dt="r8">0</Current><DateUtc dt:dt="string">2017-12-26T06:39:05Z</DateUtc></FrequencyChange></FrequencyChanges></Clock>\n	Assimilation_2b-101-1	60.015	1.0.0.62	1	-1413574928	Professional	2.0.10.353	2.0.10.353	12-26-2017	26-Dec-17 6:39:05 AM	17:39:05	2.0.10.248	22	1	1	2																						f1proc1	explist					14	6	2	14										Thai_F1_mii21-1	exproc	f1List1	0		0	0	719270	0	7	1195	720465	0		0	-1	715270	h	1067	716337	F1	mii	1	21
Assimilation_2b	101	1	<?xml version="1.0"?>\n<Clock xmlns:dt="urn:schemas-microsoft-com:datatypes"><Description dt:dt="string">E-Prime Primary Realtime Clock</Description><StartTime><Timestamp dt:dt="int">0</Timestamp><DateUtc dt:dt="string">2017-12-26T06:39:05Z</DateUtc></StartTime><FrequencyChanges><FrequencyChange><Frequency dt:dt="r8">2742343</Frequency><Timestamp dt:dt="r8">15765959310</Timestamp><Current dt:dt="r8">0</Current><DateUtc dt:dt="string">2017-12-26T06:39:05Z</DateUtc></FrequencyChange></FrequencyChanges></Clock>\n	Assimilation_2b-101-1	60.015	1.0.0.62	1	-1413574928	Professional	2.0.10.353	2.0.10.353	12-26-2017	26-Dec-17 6:39:05 AM	17:39:05	2.0.10.248	22	1	1	2																						f1proc1	explist					15	7	2	15										Thai_F1_mii241-1	exproc	f1List1	0		0	-1	728267	0	5	2289	730556	1		0	-1	724268		0	0	F1	mii	1	241
Assimilation_2b	101	1	<?xml version="1.0"?>\n<Clock xmlns:dt="urn:schemas-microsoft-com:datatypes"><Description dt:dt="string">E-Prime Primary Realtime Clock</Description><StartTime><Timestamp dt:dt="int">0</Timestamp><DateUtc dt:dt="string">2017-12-26T06:39:05Z</DateUtc></StartTime><FrequencyChanges><FrequencyChange><Frequency dt:dt="r8">2742343</Frequency><Timestamp dt:dt="r8">15765959310</Timestamp><Current dt:dt="r8">0</Current><DateUtc dt:dt="string">2017-12-26T06:39:05Z</DateUtc></FrequencyChange></FrequencyChanges></Clock>\n	Assimilation_2b-101-1	60.015	1.0.0.62	1	-1413574928	Professional	2.0.10.353	2.0.10.353	12-26-2017	26-Dec-17 6:39:05 AM	17:39:05	2.0.10.248	22	1	1	2																						f1proc1	explist					16	10	2	16										Thai_F1_mii45-1	exproc	f1List1	0		0	-1	737265	0	7	1831	739096	0		0	-1	733265	g	1177	734442	F1	mii	1	45
Assimilation_2b	101	1	<?xml version="1.0"?>\n<Clock xmlns:dt="urn:schemas-microsoft-com:datatypes"><Description dt:dt="string">E-Prime Primary Realtime Clock</Description><StartTime><Timestamp dt:dt="int">0</Timestamp><DateUtc dt:dt="string">2017-12-26T06:39:05Z</DateUtc></StartTime><FrequencyChanges><FrequencyChange><Frequency dt:dt="r8">2742343</Frequency><Timestamp dt:dt="r8">15765959310</Timestamp><Current dt:dt="r8">0</Current><DateUtc dt:dt="string">2017-12-26T06:39:05Z</DateUtc></FrequencyChange></FrequencyChanges></Clock>\n	Assimilation_2b-101-1	60.015	1.0.0.62	1	-1413574928	Professional	2.0.10.353	2.0.10.353	12-26-2017	26-Dec-17 6:39:05 AM	17:39:05	2.0.10.248	22	1	1	2																						f1proc1	explist					17	5	2	17										Thai_F1_maa45-3	exproc	f1List1	0		0	-1	746263	0	7	1351	747614	0		0	-1	742263	g	1085	743348	F1	maa	3	45
Assimilation_2b	101	1	<?xml version="1.0"?>\n<Clock xmlns:dt="urn:schemas-microsoft-com:datatypes"><Description dt:dt="string">E-Prime Primary Realtime Clock</Description><StartTime><Timestamp dt:dt="int">0</Timestamp><DateUtc dt:dt="string">2017-12-26T06:39:05Z</DateUtc></StartTime><FrequencyChanges><FrequencyChange><Frequency dt:dt="r8">2742343</Frequency><Timestamp dt:dt="r8">15765959310</Timestamp><Current dt:dt="r8">0</Current><DateUtc dt:dt="string">2017-12-26T06:39:05Z</DateUtc></FrequencyChange></FrequencyChanges></Clock>\n	Assimilation_2b-101-1	60.015	1.0.0.62	1	-1413574928	Professional	2.0.10.353	2.0.10.353	12-26-2017	26-Dec-17 6:39:05 AM	17:39:05	2.0.10.248	22	1	1	2																						f1proc1	explist					18	2	2	18										Thai_F1_maa241-1	exproc	f1List1	0		0	0	755261	0	4	1625	756886	0		0	-1	751261	f	1697	752958	F1	maa	1	241
Assimilation_2b	101	1	<?xml version="1.0"?>\n<Clock xmlns:dt="urn:schemas-microsoft-com:datatypes"><Description dt:dt="string">E-Prime Primary Realtime Clock</Description><StartTime><Timestamp dt:dt="int">0</Timestamp><DateUtc dt:dt="string">2017-12-26T06:39:05Z</DateUtc></StartTime><FrequencyChanges><FrequencyChange><Frequency dt:dt="r8">2742343</Frequency><Timestamp dt:dt="r8">15765959310</Timestamp><Current dt:dt="r8">0</Current><DateUtc dt:dt="string">2017-12-26T06:39:05Z</DateUtc></FrequencyChange></FrequencyChanges></Clock>\n	Assimilation_2b-101-1	60.015	1.0.0.62	1	-1413574928	Professional	2.0.10.353	2.0.10.353	12-26-2017	26-Dec-17 6:39:05 AM	17:39:05	2.0.10.248	22	1	1	2																						f1proc1	explist					19	1	2	19										Thai_F1_maa21-1	exproc	f1List1	0		1	-1	764258	0	7	1816	766074	0		0	-1	760259	h	1190	761449	F1	maa	1	21
Assimilation_2b	101	1	<?xml version="1.0"?>\n<Clock xmlns:dt="urn:schemas-microsoft-com:datatypes"><Description dt:dt="string">E-Prime Primary Realtime Clock</Description><StartTime><Timestamp dt:dt="int">0</Timestamp><DateUtc dt:dt="string">2017-12-26T06:39:05Z</DateUtc></StartTime><FrequencyChanges><FrequencyChange><Frequency dt:dt="r8">2742343</Frequency><Timestamp dt:dt="r8">15765959310</Timestamp><Current dt:dt="r8">0</Current><DateUtc dt:dt="string">2017-12-26T06:39:05Z</DateUtc></FrequencyChange></FrequencyChanges></Clock>\n	Assimilation_2b-101-1	60.015	1.0.0.62	1	-1413574928	Professional	2.0.10.353	2.0.10.353	12-26-2017	26-Dec-17 6:39:05 AM	17:39:05	2.0.10.248	22	1	1	2																						f1proc1	explist					20	9	2	20										Thai_F1_mii33-2	exproc	f1List1	0		0	-1	773256	0	6	858	774114	0		0	-1	769256	f	1367	770623	F1	mii	2	33
Assimilation_2b	101	1	<?xml version="1.0"?>\n<Clock xmlns:dt="urn:schemas-microsoft-com:datatypes"><Description dt:dt="string">E-Prime Primary Realtime Clock</Description><StartTime><Timestamp dt:dt="int">0</Timestamp><DateUtc dt:dt="string">2017-12-26T06:39:05Z</DateUtc></StartTime><FrequencyChanges><FrequencyChange><Frequency dt:dt="r8">2742343</Frequency><Timestamp dt:dt="r8">15765959310</Timestamp><Current dt:dt="r8">0</Current><DateUtc dt:dt="string">2017-12-26T06:39:05Z</DateUtc></FrequencyChange></FrequencyChanges></Clock>\n	Assimilation_2b-101-1	60.015	1.0.0.62	1	-1413574928	Professional	2.0.10.353	2.0.10.353	12-26-2017	26-Dec-17 6:39:05 AM	17:39:05	2.0.10.248	22	1	1	2																						f1proc1	explist					21	8	3	21										Thai_F1_mii315-2	exproc	f1List1	0		0	-1	782254	0	7	387	782641	0		0	-1	778254	g	1165	779419	F1	mii	2	315
Assimilation_2b	101	1	<?xml version="1.0"?>\n<Clock xmlns:dt="urn:schemas-microsoft-com:datatypes"><Description dt:dt="string">E-Prime Primary Realtime Clock</Description><StartTime><Timestamp dt:dt="int">0</Timestamp><DateUtc dt:dt="string">2017-12-26T06:39:05Z</DateUtc></StartTime><FrequencyChanges><FrequencyChange><Frequency dt:dt="r8">2742343</Frequency><Timestamp dt:dt="r8">15765959310</Timestamp><Current dt:dt="r8">0</Current><DateUtc dt:dt="string">2017-12-26T06:39:05Z</DateUtc></FrequencyChange></FrequencyChanges></Clock>\n	Assimilation_2b-101-1	60.015	1.0.0.62	1	-1413574928	Professional	2.0.10.353	2.0.10.353	12-26-2017	26-Dec-17 6:39:05 AM	17:39:05	2.0.10.248	22	1	1	2																						f1proc1	explist					22	6	3	22										Thai_F1_mii21-1	exproc	f1List1	0		0	0	791252	0	7	1016	792268	0		0	-1	787252	h	1181	788433	F1	mii	1	21
Assimilation_2b	101	1	<?xml version="1.0"?>\n<Clock xmlns:dt="urn:schemas-microsoft-com:datatypes"><Description dt:dt="string">E-Prime Primary Realtime Clock</Description><StartTime><Timestamp dt:dt="int">0</Timestamp><DateUtc dt:dt="string">2017-12-26T06:39:05Z</DateUtc></StartTime><FrequencyChanges><FrequencyChange><Frequency dt:dt="r8">2742343</Frequency><Timestamp dt:dt="r8">15765959310</Timestamp><Current dt:dt="r8">0</Current><DateUtc dt:dt="string">2017-12-26T06:39:05Z</DateUtc></FrequencyChange></FrequencyChanges></Clock>\n	Assimilation_2b-101-1	60.015	1.0.0.62	1	-1413574928	Professional	2.0.10.353	2.0.10.353	12-26-2017	26-Dec-17 6:39:05 AM	17:39:05	2.0.10.248	22	1	1	2																						f1proc1	explist					23	1	3	23										Thai_F1_maa21-1	exproc	f1List1	0		0	-1	800249	0	7	2064	802313	0		0	-1	796250	h	1689	797939	F1	maa	1	21
Assimilation_2b	101	1	<?xml version="1.0"?>\n<Clock xmlns:dt="urn:schemas-microsoft-com:datatypes"><Description dt:dt="string">E-Prime Primary Realtime Clock</Description><StartTime><Timestamp dt:dt="int">0</Timestamp><DateUtc dt:dt="string">2017-12-26T06:39:05Z</DateUtc></StartTime><FrequencyChanges><FrequencyChange><Frequency dt:dt="r8">2742343</Frequency><Timestamp dt:dt="r8">15765959310</Timestamp><Current dt:dt="r8">0</Current><DateUtc dt:dt="string">2017-12-26T06:39:05Z</DateUtc></FrequencyChange></FrequencyChanges></Clock>\n	Assimilation_2b-101-1	60.015	1.0.0.62	1	-1413574928	Professional	2.0.10.353	2.0.10.353	12-26-2017	26-Dec-17 6:39:05 AM	17:39:05	2.0.10.248	22	1	1	2																						f1proc1	explist					24	2	3	24										Thai_F1_maa241-1	exproc	f1List1	0		0	-1	809247	0	5	1921	811168	0		0	-1	805247	f	1945	807192	F1	maa	1	241
Assimilation_2b	101	1	<?xml version="1.0"?>\n<Clock xmlns:dt="urn:schemas-microsoft-com:datatypes"><Description dt:dt="string">E-Prime Primary Realtime Clock</Description><StartTime><Timestamp dt:dt="int">0</Timestamp><DateUtc dt:dt="string">2017-12-26T06:39:05Z</DateUtc></StartTime><FrequencyChanges><FrequencyChange><Frequency dt:dt="r8">2742343</Frequency><Timestamp dt:dt="r8">15765959310</Timestamp><Current dt:dt="r8">0</Current><DateUtc dt:dt="string">2017-12-26T06:39:05Z</DateUtc></FrequencyChange></FrequencyChanges></Clock>\n	Assimilation_2b-101-1	60.015	1.0.0.62	1	-1413574928	Professional	2.0.10.353	2.0.10.353	12-26-2017	26-Dec-17 6:39:05 AM	17:39:05	2.0.10.248	22	1	1	2																						f1proc1	explist					25	7	3	25										Thai_F1_mii241-1	exproc	f1List1	0		0	-1	818245	0	4	2650	820895	0		0	-1	814245	f	951	815196	F1	mii	1	241
Assimilation_2b	101	1	<?xml version="1.0"?>\n<Clock xmlns:dt="urn:schemas-microsoft-com:datatypes"><Description dt:dt="string">E-Prime Primary Realtime Clock</Description><StartTime><Timestamp dt:dt="int">0</Timestamp><DateUtc dt:dt="string">2017-12-26T06:39:05Z</DateUtc></StartTime><FrequencyChanges><FrequencyChange><Frequency dt:dt="r8">2742343</Frequency><Timestamp dt:dt="r8">15765959310</Timestamp><Current dt:dt="r8">0</Current><DateUtc dt:dt="string">2017-12-26T06:39:05Z</DateUtc></FrequencyChange></FrequencyChanges></Clock>\n	Assimilation_2b-101-1	60.015	1.0.0.62	1	-1413574928	Professional	2.0.10.353	2.0.10.353	12-26-2017	26-Dec-17 6:39:05 AM	17:39:05	2.0.10.248	22	1	1	2																						f1proc1	explist					26	3	3	26										Thai_F1_maa315-2	exproc	f1List1	0		0	0	827243	0	7	382	827625	0		0	-1	823243	g	1064	824307	F1	maa	2	315
Assimilation_2b	101	1	<?xml version="1.0"?>\n<Clock xmlns:dt="urn:schemas-microsoft-com:datatypes"><Description dt:dt="string">E-Prime Primary Realtime Clock</Description><StartTime><Timestamp dt:dt="int">0</Timestamp><DateUtc dt:dt="string">2017-12-26T06:39:05Z</DateUtc></StartTime><FrequencyChanges><FrequencyChange><Frequency dt:dt="r8">2742343</Frequency><Timestamp dt:dt="r8">15765959310</Timestamp><Current dt:dt="r8">0</Current><DateUtc dt:dt="string">2017-12-26T06:39:05Z</DateUtc></FrequencyChange></FrequencyChanges></Clock>\n	Assimilation_2b-101-1	60.015	1.0.0.62	1	-1413574928	Professional	2.0.10.353	2.0.10.353	12-26-2017	26-Dec-17 6:39:05 AM	17:39:05	2.0.10.248	22	1	1	2																						f1proc1	explist					27	5	3	27										Thai_F1_maa45-3	exproc	f1List1	0		0	-1	836240	0	7	1611	837851	0		0	-1	832241	g	1400	833641	F1	maa	3	45
Assimilation_2b	101	1	<?xml version="1.0"?>\n<Clock xmlns:dt="urn:schemas-microsoft-com:datatypes"><Description dt:dt="string">E-Prime Primary Realtime Clock</Description><StartTime><Timestamp dt:dt="int">0</Timestamp><DateUtc dt:dt="string">2017-12-26T06:39:05Z</DateUtc></StartTime><FrequencyChanges><FrequencyChange><Frequency dt:dt="r8">2742343</Frequency><Timestamp dt:dt="r8">15765959310</Timestamp><Current dt:dt="r8">0</Current><DateUtc dt:dt="string">2017-12-26T06:39:05Z</DateUtc></FrequencyChange></FrequencyChanges></Clock>\n	Assimilation_2b-101-1	60.015	1.0.0.62	1	-1413574928	Professional	2.0.10.353	2.0.10.353	12-26-2017	26-Dec-17 6:39:05 AM	17:39:05	2.0.10.248	22	1	1	2																						f1proc1	explist					28	9	3	28										Thai_F1_mii33-2	exproc	f1List1	0		0	-1	845238	0	7	2232	847470	0		0	-1	841238	f	1191	842429	F1	mii	2	33
Assimilation_2b	101	1	<?xml version="1.0"?>\n<Clock xmlns:dt="urn:schemas-microsoft-com:datatypes"><Description dt:dt="string">E-Prime Primary Realtime Clock</Description><StartTime><Timestamp dt:dt="int">0</Timestamp><DateUtc dt:dt="string">2017-12-26T06:39:05Z</DateUtc></StartTime><FrequencyChanges><FrequencyChange><Frequency dt:dt="r8">2742343</Frequency><Timestamp dt:dt="r8">15765959310</Timestamp><Current dt:dt="r8">0</Current><DateUtc dt:dt="string">2017-12-26T06:39:05Z</DateUtc></FrequencyChange></FrequencyChanges></Clock>\n	Assimilation_2b-101-1	60.015	1.0.0.62	1	-1413574928	Professional	2.0.10.353	2.0.10.353	12-26-2017	26-Dec-17 6:39:05 AM	17:39:05	2.0.10.248	22	1	1	2																						f1proc1	explist					29	4	3	29										Thai_F1_maa33-4	exproc	f1List1	0		0	-1	854236	0	7	1510	855746	0		0	-1	850236	f	1363	851599	F1	maa	4	33
Assimilation_2b	101	1	<?xml version="1.0"?>\n<Clock xmlns:dt="urn:schemas-microsoft-com:datatypes"><Description dt:dt="string">E-Prime Primary Realtime Clock</Description><StartTime><Timestamp dt:dt="int">0</Timestamp><DateUtc dt:dt="string">2017-12-26T06:39:05Z</DateUtc></StartTime><FrequencyChanges><FrequencyChange><Frequency dt:dt="r8">2742343</Frequency><Timestamp dt:dt="r8">15765959310</Timestamp><Current dt:dt="r8">0</Current><DateUtc dt:dt="string">2017-12-26T06:39:05Z</DateUtc></FrequencyChange></FrequencyChanges></Clock>\n	Assimilation_2b-101-1	60.015	1.0.0.62	1	-1413574928	Professional	2.0.10.353	2.0.10.353	12-26-2017	26-Dec-17 6:39:05 AM	17:39:05	2.0.10.248	22	1	1	2																						f1proc1	explist					30	10	3	30										Thai_F1_mii45-1	exproc	f1List1	0		0	0	863234	0	7	1921	865155	0		0	-1	859234	g	1185	860419	F1	mii	1	45
Assimilation_2b	101	1	<?xml version="1.0"?>\n<Clock xmlns:dt="urn:schemas-microsoft-com:datatypes"><Description dt:dt="string">E-Prime Primary Realtime Clock</Description><StartTime><Timestamp dt:dt="int">0</Timestamp><DateUtc dt:dt="string">2017-12-26T06:39:05Z</DateUtc></StartTime><FrequencyChanges><FrequencyChange><Frequency dt:dt="r8">2742343</Frequency><Timestamp dt:dt="r8">15765959310</Timestamp><Current dt:dt="r8">0</Current><DateUtc dt:dt="string">2017-12-26T06:39:05Z</DateUtc></FrequencyChange></FrequencyChanges></Clock>\n	Assimilation_2b-101-1	60.015	1.0.0.62	1	-1413574928	Professional	2.0.10.353	2.0.10.353	12-26-2017	26-Dec-17 6:39:05 AM	17:39:05	2.0.10.248	23	2	1	3																						f1proc2	explist					1				7	1	1							Thai_F1_mii241-2	exproc	f1List2	0		0	-1	878230	0	3	447	878677	0		0	-1	874230	f	2364	876594	F1	mii	2	241
Assimilation_2b	101	1	<?xml version="1.0"?>\n<Clock xmlns:dt="urn:schemas-microsoft-com:datatypes"><Description dt:dt="string">E-Prime Primary Realtime Clock</Description><StartTime><Timestamp dt:dt="int">0</Timestamp><DateUtc dt:dt="string">2017-12-26T06:39:05Z</DateUtc></StartTime><FrequencyChanges><FrequencyChange><Frequency dt:dt="r8">2742343</Frequency><Timestamp dt:dt="r8">15765959310</Timestamp><Current dt:dt="r8">0</Current><DateUtc dt:dt="string">2017-12-26T06:39:05Z</DateUtc></FrequencyChange></FrequencyChanges></Clock>\n	Assimilation_2b-101-1	60.015	1.0.0.62	1	-1413574928	Professional	2.0.10.353	2.0.10.353	12-26-2017	26-Dec-17 6:39:05 AM	17:39:05	2.0.10.248	23	2	1	3																						f1proc2	explist					2				6	1	2							Thai_F1_mii21-2	exproc	f1List2	0		0	0	887228	0	7	1513	888741	0		0	-1	883228	h	1524	884752	F1	mii	2	21
Assimilation_2b	101	1	<?xml version="1.0"?>\n<Clock xmlns:dt="urn:schemas-microsoft-com:datatypes"><Description dt:dt="string">E-Prime Primary Realtime Clock</Description><StartTime><Timestamp dt:dt="int">0</Timestamp><DateUtc dt:dt="string">2017-12-26T06:39:05Z</DateUtc></StartTime><FrequencyChanges><FrequencyChange><Frequency dt:dt="r8">2742343</Frequency><Timestamp dt:dt="r8">15765959310</Timestamp><Current dt:dt="r8">0</Current><DateUtc dt:dt="string">2017-12-26T06:39:05Z</DateUtc></FrequencyChange></FrequencyChanges></Clock>\n	Assimilation_2b-101-1	60.015	1.0.0.62	1	-1413574928	Professional	2.0.10.353	2.0.10.353	12-26-2017	26-Dec-17 6:39:05 AM	17:39:05	2.0.10.248	23	2	1	3																						f1proc2	explist					3				1	1	3							Thai_F1_maa21-5	exproc	f1List2	0		0	-1	896225	0	7	2650	898875	0		0	-1	892226	h	1545	893771	F1	maa	5	21
Assimilation_2b	101	1	<?xml version="1.0"?>\n<Clock xmlns:dt="urn:schemas-microsoft-com:datatypes"><Description dt:dt="string">E-Prime Primary Realtime Clock</Description><StartTime><Timestamp dt:dt="int">0</Timestamp><DateUtc dt:dt="string">2017-12-26T06:39:05Z</DateUtc></StartTime><FrequencyChanges><FrequencyChange><Frequency dt:dt="r8">2742343</Frequency><Timestamp dt:dt="r8">15765959310</Timestamp><Current dt:dt="r8">0</Current><DateUtc dt:dt="string">2017-12-26T06:39:05Z</DateUtc></FrequencyChange></FrequencyChanges></Clock>\n	Assimilation_2b-101-1	60.015	1.0.0.62	1	-1413574928	Professional	2.0.10.353	2.0.10.353	12-26-2017	26-Dec-17 6:39:05 AM	17:39:05	2.0.10.248	23	2	1	3																						f1proc2	explist					4				3	1	4							Thai_F1_maa315-3	exproc	f1List2	0		0	-1	905223	0	7	738	905961	0		0	-1	901223	g	1273	902496	F1	maa	3	315
Assimilation_2b	101	1	<?xml version="1.0"?>\n<Clock xmlns:dt="urn:schemas-microsoft-com:datatypes"><Description dt:dt="string">E-Prime Primary Realtime Clock</Description><StartTime><Timestamp dt:dt="int">0</Timestamp><DateUtc dt:dt="string">2017-12-26T06:39:05Z</DateUtc></StartTime><FrequencyChanges><FrequencyChange><Frequency dt:dt="r8">2742343</Frequency><Timestamp dt:dt="r8">15765959310</Timestamp><Current dt:dt="r8">0</Current><DateUtc dt:dt="string">2017-12-26T06:39:05Z</DateUtc></FrequencyChange></FrequencyChanges></Clock>\n	Assimilation_2b-101-1	60.015	1.0.0.62	1	-1413574928	Professional	2.0.10.353	2.0.10.353	12-26-2017	26-Dec-17 6:39:05 AM	17:39:05	2.0.10.248	23	2	1	3																						f1proc2	explist					5				10	1	5							Thai_F1_mii45-5	exproc	f1List2	0		0	-1	914221	0	7	420	914641	0		0	-1	910221	g	1360	911581	F1	mii	5	45
Assimilation_2b	101	1	<?xml version="1.0"?>\n<Clock xmlns:dt="urn:schemas-microsoft-com:datatypes"><Description dt:dt="string">E-Prime Primary Realtime Clock</Description><StartTime><Timestamp dt:dt="int">0</Timestamp><DateUtc dt:dt="string">2017-12-26T06:39:05Z</DateUtc></StartTime><FrequencyChanges><FrequencyChange><Frequency dt:dt="r8">2742343</Frequency><Timestamp dt:dt="r8">15765959310</Timestamp><Current dt:dt="r8">0</Current><DateUtc dt:dt="string">2017-12-26T06:39:05Z</DateUtc></FrequencyChange></FrequencyChanges></Clock>\n	Assimilation_2b-101-1	60.015	1.0.0.62	1	-1413574928	Professional	2.0.10.353	2.0.10.353	12-26-2017	26-Dec-17 6:39:05 AM	17:39:05	2.0.10.248	23	2	1	3																						f1proc2	explist					6				8	1	6							Thai_F1_mii315-4	exproc	f1List2	0		0	0	923219	0	7	1298	924517	0		0	-1	919219	g	1589	920808	F1	mii	4	315
Assimilation_2b	101	1	<?xml version="1.0"?>\n<Clock xmlns:dt="urn:schemas-microsoft-com:datatypes"><Description dt:dt="string">E-Prime Primary Realtime Clock</Description><StartTime><Timestamp dt:dt="int">0</Timestamp><DateUtc dt:dt="string">2017-12-26T06:39:05Z</DateUtc></StartTime><FrequencyChanges><FrequencyChange><Frequency dt:dt="r8">2742343</Frequency><Timestamp dt:dt="r8">15765959310</Timestamp><Current dt:dt="r8">0</Current><DateUtc dt:dt="string">2017-12-26T06:39:05Z</DateUtc></FrequencyChange></FrequencyChanges></Clock>\n	Assimilation_2b-101-1	60.015	1.0.0.62	1	-1413574928	Professional	2.0.10.353	2.0.10.353	12-26-2017	26-Dec-17 6:39:05 AM	17:39:05	2.0.10.248	23	2	1	3																						f1proc2	explist					7				9	1	7							Thai_F1_mii33-3	exproc	f1List2	0		0	-1	932216	0	7	1614	933830	0		0	-1	928217	f	1169	929386	F1	mii	3	33
Assimilation_2b	101	1	<?xml version="1.0"?>\n<Clock xmlns:dt="urn:schemas-microsoft-com:datatypes"><Description dt:dt="string">E-Prime Primary Realtime Clock</Description><StartTime><Timestamp dt:dt="int">0</Timestamp><DateUtc dt:dt="string">2017-12-26T06:39:05Z</DateUtc></StartTime><FrequencyChanges><FrequencyChange><Frequency dt:dt="r8">2742343</Frequency><Timestamp dt:dt="r8">15765959310</Timestamp><Current dt:dt="r8">0</Current><DateUtc dt:dt="string">2017-12-26T06:39:05Z</DateUtc></FrequencyChange></FrequencyChanges></Clock>\n	Assimilation_2b-101-1	60.015	1.0.0.62	1	-1413574928	Professional	2.0.10.353	2.0.10.353	12-26-2017	26-Dec-17 6:39:05 AM	17:39:05	2.0.10.248	23	2	1	3																						f1proc2	explist					8				5	1	8							Thai_F1_maa45-5	exproc	f1List2	0		0	-1	941214	0	7	2186	943400	0		0	-1	937214	g	925	938139	F1	maa	5	45
Assimilation_2b	101	1	<?xml version="1.0"?>\n<Clock xmlns:dt="urn:schemas-microsoft-com:datatypes"><Description dt:dt="string">E-Prime Primary Realtime Clock</Description><StartTime><Timestamp dt:dt="int">0</Timestamp><DateUtc dt:dt="string">2017-12-26T06:39:05Z</DateUtc></StartTime><FrequencyChanges><FrequencyChange><Frequency dt:dt="r8">2742343</Frequency><Timestamp dt:dt="r8">15765959310</Timestamp><Current dt:dt="r8">0</Current><DateUtc dt:dt="string">2017-12-26T06:39:05Z</DateUtc></FrequencyChange></FrequencyChanges></Clock>\n	Assimilation_2b-101-1	60.015	1.0.0.62	1	-1413574928	Professional	2.0.10.353	2.0.10.353	12-26-2017	26-Dec-17 6:39:05 AM	17:39:05	2.0.10.248	23	2	1	3																						f1proc2	explist					9				2	1	9							Thai_F1_maa241-5	exproc	f1List2	0		0	-1	950212	0	7	1086	951298	0		0	-1	946212	f	1357	947569	F1	maa	5	241
Assimilation_2b	101	1	<?xml version="1.0"?>\n<Clock xmlns:dt="urn:schemas-microsoft-com:datatypes"><Description dt:dt="string">E-Prime Primary Realtime Clock</Description><StartTime><Timestamp dt:dt="int">0</Timestamp><DateUtc dt:dt="string">2017-12-26T06:39:05Z</DateUtc></StartTime><FrequencyChanges><FrequencyChange><Frequency dt:dt="r8">2742343</Frequency><Timestamp dt:dt="r8">15765959310</Timestamp><Current dt:dt="r8">0</Current><DateUtc dt:dt="string">2017-12-26T06:39:05Z</DateUtc></FrequencyChange></FrequencyChanges></Clock>\n	Assimilation_2b-101-1	60.015	1.0.0.62	1	-1413574928	Professional	2.0.10.353	2.0.10.353	12-26-2017	26-Dec-17 6:39:05 AM	17:39:05	2.0.10.248	23	2	1	3																						f1proc2	explist					10				4	1	10							Thai_F1_maa33-5	exproc	f1List2	0		0	0	959210	0	5	3054	962264	0		0	-1	955210	f	2350	957560	F1	maa	5	33
Assimilation_2b	101	1	<?xml version="1.0"?>\n<Clock xmlns:dt="urn:schemas-microsoft-com:datatypes"><Description dt:dt="string">E-Prime Primary Realtime Clock</Description><StartTime><Timestamp dt:dt="int">0</Timestamp><DateUtc dt:dt="string">2017-12-26T06:39:05Z</DateUtc></StartTime><FrequencyChanges><FrequencyChange><Frequency dt:dt="r8">2742343</Frequency><Timestamp dt:dt="r8">15765959310</Timestamp><Current dt:dt="r8">0</Current><DateUtc dt:dt="string">2017-12-26T06:39:05Z</DateUtc></FrequencyChange></FrequencyChanges></Clock>\n	Assimilation_2b-101-1	60.015	1.0.0.62	1	-1413574928	Professional	2.0.10.353	2.0.10.353	12-26-2017	26-Dec-17 6:39:05 AM	17:39:05	2.0.10.248	23	2	1	3																						f1proc2	explist					11				8	2	11							Thai_F1_mii315-4	exproc	f1List2	0		1	-1	968207	0	7	2229	970436	0		0	-1	964208	g	1041	965249	F1	mii	4	315
Assimilation_2b	101	1	<?xml version="1.0"?>\n<Clock xmlns:dt="urn:schemas-microsoft-com:datatypes"><Description dt:dt="string">E-Prime Primary Realtime Clock</Description><StartTime><Timestamp dt:dt="int">0</Timestamp><DateUtc dt:dt="string">2017-12-26T06:39:05Z</DateUtc></StartTime><FrequencyChanges><FrequencyChange><Frequency dt:dt="r8">2742343</Frequency><Timestamp dt:dt="r8">15765959310</Timestamp><Current dt:dt="r8">0</Current><DateUtc dt:dt="string">2017-12-26T06:39:05Z</DateUtc></FrequencyChange></FrequencyChanges></Clock>\n	Assimilation_2b-101-1	60.015	1.0.0.62	1	-1413574928	Professional	2.0.10.353	2.0.10.353	12-26-2017	26-Dec-17 6:39:05 AM	17:39:05	2.0.10.248	23	2	1	3																						f1proc2	explist					12				10	2	12							Thai_F1_mii45-5	exproc	f1List2	0		0	-1	977205	0	7	493	977698	0		0	-1	973205	g	1157	974362	F1	mii	5	45
Assimilation_2b	101	1	<?xml version="1.0"?>\n<Clock xmlns:dt="urn:schemas-microsoft-com:datatypes"><Description dt:dt="string">E-Prime Primary Realtime Clock</Description><StartTime><Timestamp dt:dt="int">0</Timestamp><DateUtc dt:dt="string">2017-12-26T06:39:05Z</DateUtc></StartTime><FrequencyChanges><FrequencyChange><Frequency dt:dt="r8">2742343</Frequency><Timestamp dt:dt="r8">15765959310</Timestamp><Current dt:dt="r8">0</Current><DateUtc dt:dt="string">2017-12-26T06:39:05Z</DateUtc></FrequencyChange></FrequencyChanges></Clock>\n	Assimilation_2b-101-1	60.015	1.0.0.62	1	-1413574928	Professional	2.0.10.353	2.0.10.353	12-26-2017	26-Dec-17 6:39:05 AM	17:39:05	2.0.10.248	23	2	1	3																						f1proc2	explist					13				1	2	13							Thai_F1_maa21-5	exproc	f1List2	0		0	-1	986203	0	7	1126	987329	0		0	-1	982203	h	1273	983476	F1	maa	5	21
Assimilation_2b	101	1	<?xml version="1.0"?>\n<Clock xmlns:dt="urn:schemas-microsoft-com:datatypes"><Description dt:dt="string">E-Prime Primary Realtime Clock</Description><StartTime><Timestamp dt:dt="int">0</Timestamp><DateUtc dt:dt="string">2017-12-26T06:39:05Z</DateUtc></StartTime><FrequencyChanges><FrequencyChange><Frequency dt:dt="r8">2742343</Frequency><Timestamp dt:dt="r8">15765959310</Timestamp><Current dt:dt="r8">0</Current><DateUtc dt:dt="string">2017-12-26T06:39:05Z</DateUtc></FrequencyChange></FrequencyChanges></Clock>\n	Assimilation_2b-101-1	60.015	1.0.0.62	1	-1413574928	Professional	2.0.10.353	2.0.10.353	12-26-2017	26-Dec-17 6:39:05 AM	17:39:05	2.0.10.248	23	2	1	3																						f1proc2	explist					14				7	2	14							Thai_F1_mii241-2	exproc	f1List2	0		0	0	995201	0	3	688	995889	0		0	-1	991201	f	2246	993447	F1	mii	2	241
Assimilation_2b	101	1	<?xml version="1.0"?>\n<Clock xmlns:dt="urn:schemas-microsoft-com:datatypes"><Description dt:dt="string">E-Prime Primary Realtime Clock</Description><StartTime><Timestamp dt:dt="int">0</Timestamp><DateUtc dt:dt="string">2017-12-26T06:39:05Z</DateUtc></StartTime><FrequencyChanges><FrequencyChange><Frequency dt:dt="r8">2742343</Frequency><Timestamp dt:dt="r8">15765959310</Timestamp><Current dt:dt="r8">0</Current><DateUtc dt:dt="string">2017-12-26T06:39:05Z</DateUtc></FrequencyChange></FrequencyChanges></Clock>\n	Assimilation_2b-101-1	60.015	1.0.0.62	1	-1413574928	Professional	2.0.10.353	2.0.10.353	12-26-2017	26-Dec-17 6:39:05 AM	17:39:05	2.0.10.248	23	2	1	3																						f1proc2	explist					15				3	2	15							Thai_F1_maa315-3	exproc	f1List2	0		0	-1	1004198	0	7	3354	1007552	0		0	-1	1000199	g	1160	1001359	F1	maa	3	315
Assimilation_2b	101	1	<?xml version="1.0"?>\n<Clock xmlns:dt="urn:schemas-microsoft-com:datatypes"><Description dt:dt="string">E-Prime Primary Realtime Clock</Description><StartTime><Timestamp dt:dt="int">0</Timestamp><DateUtc dt:dt="string">2017-12-26T06:39:05Z</DateUtc></StartTime><FrequencyChanges><FrequencyChange><Frequency dt:dt="r8">2742343</Frequency><Timestamp dt:dt="r8">15765959310</Timestamp><Current dt:dt="r8">0</Current><DateUtc dt:dt="string">2017-12-26T06:39:05Z</DateUtc></FrequencyChange></FrequencyChanges></Clock>\n	Assimilation_2b-101-1	60.015	1.0.0.62	1	-1413574928	Professional	2.0.10.353	2.0.10.353	12-26-2017	26-Dec-17 6:39:05 AM	17:39:05	2.0.10.248	23	2	1	3																						f1proc2	explist					16				4	2	16							Thai_F1_maa33-5	exproc	f1List2	0		0	-1	1013196	0	5	1558	1014754	0		0	-1	1009196	f	1136	1010332	F1	maa	5	33
Assimilation_2b	101	1	<?xml version="1.0"?>\n<Clock xmlns:dt="urn:schemas-microsoft-com:datatypes"><Description dt:dt="string">E-Prime Primary Realtime Clock</Description><StartTime><Timestamp dt:dt="int">0</Timestamp><DateUtc dt:dt="string">2017-12-26T06:39:05Z</DateUtc></StartTime><FrequencyChanges><FrequencyChange><Frequency dt:dt="r8">2742343</Frequency><Timestamp dt:dt="r8">15765959310</Timestamp><Current dt:dt="r8">0</Current><DateUtc dt:dt="string">2017-12-26T06:39:05Z</DateUtc></FrequencyChange></FrequencyChanges></Clock>\n	Assimilation_2b-101-1	60.015	1.0.0.62	1	-1413574928	Professional	2.0.10.353	2.0.10.353	12-26-2017	26-Dec-17 6:39:05 AM	17:39:05	2.0.10.248	23	2	1	3																						f1proc2	explist					17				9	2	17							Thai_F1_mii33-3	exproc	f1List2	0		0	-1	1022194	0	5	3965	1026159	0		0	-1	1018194	f	1117	1019311	F1	mii	3	33
Assimilation_2b	101	1	<?xml version="1.0"?>\n<Clock xmlns:dt="urn:schemas-microsoft-com:datatypes"><Description dt:dt="string">E-Prime Primary Realtime Clock</Description><StartTime><Timestamp dt:dt="int">0</Timestamp><DateUtc dt:dt="string">2017-12-26T06:39:05Z</DateUtc></StartTime><FrequencyChanges><FrequencyChange><Frequency dt:dt="r8">2742343</Frequency><Timestamp dt:dt="r8">15765959310</Timestamp><Current dt:dt="r8">0</Current><DateUtc dt:dt="string">2017-12-26T06:39:05Z</DateUtc></FrequencyChange></FrequencyChanges></Clock>\n	Assimilation_2b-101-1	60.015	1.0.0.62	1	-1413574928	Professional	2.0.10.353	2.0.10.353	12-26-2017	26-Dec-17 6:39:05 AM	17:39:05	2.0.10.248	23	2	1	3																						f1proc2	explist					18				5	2	18							Thai_F1_maa45-5	exproc	f1List2	0		0	0	1031242	0	7	1646	1032888	0		0	-1	1027242	g	999	1028241	F1	maa	5	45
Assimilation_2b	101	1	<?xml version="1.0"?>\n<Clock xmlns:dt="urn:schemas-microsoft-com:datatypes"><Description dt:dt="string">E-Prime Primary Realtime Clock</Description><StartTime><Timestamp dt:dt="int">0</Timestamp><DateUtc dt:dt="string">2017-12-26T06:39:05Z</DateUtc></StartTime><FrequencyChanges><FrequencyChange><Frequency dt:dt="r8">2742343</Frequency><Timestamp dt:dt="r8">15765959310</Timestamp><Current dt:dt="r8">0</Current><DateUtc dt:dt="string">2017-12-26T06:39:05Z</DateUtc></FrequencyChange></FrequencyChanges></Clock>\n	Assimilation_2b-101-1	60.015	1.0.0.62	1	-1413574928	Professional	2.0.10.353	2.0.10.353	12-26-2017	26-Dec-17 6:39:05 AM	17:39:05	2.0.10.248	23	2	1	3																						f1proc2	explist					19				6	2	19							Thai_F1_mii21-2	exproc	f1List2	0		0	-1	1040239	0	7	332	1040571	0		0	-1	1036240	h	1070	1037310	F1	mii	2	21
Assimilation_2b	101	1	<?xml version="1.0"?>\n<Clock xmlns:dt="urn:schemas-microsoft-com:datatypes"><Description dt:dt="string">E-Prime Primary Realtime Clock</Description><StartTime><Timestamp dt:dt="int">0</Timestamp><DateUtc dt:dt="string">2017-12-26T06:39:05Z</DateUtc></StartTime><FrequencyChanges><FrequencyChange><Frequency dt:dt="r8">2742343</Frequency><Timestamp dt:dt="r8">15765959310</Timestamp><Current dt:dt="r8">0</Current><DateUtc dt:dt="string">2017-12-26T06:39:05Z</DateUtc></FrequencyChange></FrequencyChanges></Clock>\n	Assimilation_2b-101-1	60.015	1.0.0.62	1	-1413574928	Professional	2.0.10.353	2.0.10.353	12-26-2017	26-Dec-17 6:39:05 AM	17:39:05	2.0.10.248	23	2	1	3																						f1proc2	explist					20				2	2	20							Thai_F1_maa241-5	exproc	f1List2	0		0	-1	1049237	0	4	2056	1051293	0		0	-1	1045237	f	1554	1046791	F1	maa	5	241
Assimilation_2b	101	1	<?xml version="1.0"?>\n<Clock xmlns:dt="urn:schemas-microsoft-com:datatypes"><Description dt:dt="string">E-Prime Primary Realtime Clock</Description><StartTime><Timestamp dt:dt="int">0</Timestamp><DateUtc dt:dt="string">2017-12-26T06:39:05Z</DateUtc></StartTime><FrequencyChanges><FrequencyChange><Frequency dt:dt="r8">2742343</Frequency><Timestamp dt:dt="r8">15765959310</Timestamp><Current dt:dt="r8">0</Current><DateUtc dt:dt="string">2017-12-26T06:39:05Z</DateUtc></FrequencyChange></FrequencyChanges></Clock>\n	Assimilation_2b-101-1	60.015	1.0.0.62	1	-1413574928	Professional	2.0.10.353	2.0.10.353	12-26-2017	26-Dec-17 6:39:05 AM	17:39:05	2.0.10.248	23	2	1	3																						f1proc2	explist					21				7	3	21							Thai_F1_mii241-2	exproc	f1List2	0		0	-1	1058235	0	3	2718	1060953	0		0	-1	1054235	f	2154	1056389	F1	mii	2	241
Assimilation_2b	101	1	<?xml version="1.0"?>\n<Clock xmlns:dt="urn:schemas-microsoft-com:datatypes"><Description dt:dt="string">E-Prime Primary Realtime Clock</Description><StartTime><Timestamp dt:dt="int">0</Timestamp><DateUtc dt:dt="string">2017-12-26T06:39:05Z</DateUtc></StartTime><FrequencyChanges><FrequencyChange><Frequency dt:dt="r8">2742343</Frequency><Timestamp dt:dt="r8">15765959310</Timestamp><Current dt:dt="r8">0</Current><DateUtc dt:dt="string">2017-12-26T06:39:05Z</DateUtc></FrequencyChange></FrequencyChanges></Clock>\n	Assimilation_2b-101-1	60.015	1.0.0.62	1	-1413574928	Professional	2.0.10.353	2.0.10.353	12-26-2017	26-Dec-17 6:39:05 AM	17:39:05	2.0.10.248	23	2	1	3																						f1proc2	explist					22				6	3	22							Thai_F1_mii21-2	exproc	f1List2	0		0	0	1067233	0	7	1089	1068322	0		0	-1	1063233	h	925	1064158	F1	mii	2	21
Assimilation_2b	101	1	<?xml version="1.0"?>\n<Clock xmlns:dt="urn:schemas-microsoft-com:datatypes"><Description dt:dt="string">E-Prime Primary Realtime Clock</Description><StartTime><Timestamp dt:dt="int">0</Timestamp><DateUtc dt:dt="string">2017-12-26T06:39:05Z</DateUtc></StartTime><FrequencyChanges><FrequencyChange><Frequency dt:dt="r8">2742343</Frequency><Timestamp dt:dt="r8">15765959310</Timestamp><Current dt:dt="r8">0</Current><DateUtc dt:dt="string">2017-12-26T06:39:05Z</DateUtc></FrequencyChange></FrequencyChanges></Clock>\n	Assimilation_2b-101-1	60.015	1.0.0.62	1	-1413574928	Professional	2.0.10.353	2.0.10.353	12-26-2017	26-Dec-17 6:39:05 AM	17:39:05	2.0.10.248	23	2	1	3																						f1proc2	explist					23				10	3	23							Thai_F1_mii45-5	exproc	f1List2	0		0	-1	1076230	0	7	1515	1077745	0		0	-1	1072231	g	1084	1073315	F1	mii	5	45
Assimilation_2b	101	1	<?xml version="1.0"?>\n<Clock xmlns:dt="urn:schemas-microsoft-com:datatypes"><Description dt:dt="string">E-Prime Primary Realtime Clock</Description><StartTime><Timestamp dt:dt="int">0</Timestamp><DateUtc dt:dt="string">2017-12-26T06:39:05Z</DateUtc></StartTime><FrequencyChanges><FrequencyChange><Frequency dt:dt="r8">2742343</Frequency><Timestamp dt:dt="r8">15765959310</Timestamp><Current dt:dt="r8">0</Current><DateUtc dt:dt="string">2017-12-26T06:39:05Z</DateUtc></FrequencyChange></FrequencyChanges></Clock>\n	Assimilation_2b-101-1	60.015	1.0.0.62	1	-1413574928	Professional	2.0.10.353	2.0.10.353	12-26-2017	26-Dec-17 6:39:05 AM	17:39:05	2.0.10.248	23	2	1	3																						f1proc2	explist					24				9	3	24							Thai_F1_mii33-3	exproc	f1List2	0		0	-1	1085228	0	3	869	1086097	0		0	-1	1081228	f	1288	1082516	F1	mii	3	33
Assimilation_2b	101	1	<?xml version="1.0"?>\n<Clock xmlns:dt="urn:schemas-microsoft-com:datatypes"><Description dt:dt="string">E-Prime Primary Realtime Clock</Description><StartTime><Timestamp dt:dt="int">0</Timestamp><DateUtc dt:dt="string">2017-12-26T06:39:05Z</DateUtc></StartTime><FrequencyChanges><FrequencyChange><Frequency dt:dt="r8">2742343</Frequency><Timestamp dt:dt="r8">15765959310</Timestamp><Current dt:dt="r8">0</Current><DateUtc dt:dt="string">2017-12-26T06:39:05Z</DateUtc></FrequencyChange></FrequencyChanges></Clock>\n	Assimilation_2b-101-1	60.015	1.0.0.62	1	-1413574928	Professional	2.0.10.353	2.0.10.353	12-26-2017	26-Dec-17 6:39:05 AM	17:39:05	2.0.10.248	23	2	1	3																						f1proc2	explist					25				3	3	25							Thai_F1_maa315-3	exproc	f1List2	0		0	-1	1094226	0	7	1052	1095278	0		0	-1	1090226	g	1387	1091613	F1	maa	3	315
Assimilation_2b	101	1	<?xml version="1.0"?>\n<Clock xmlns:dt="urn:schemas-microsoft-com:datatypes"><Description dt:dt="string">E-Prime Primary Realtime Clock</Description><StartTime><Timestamp dt:dt="int">0</Timestamp><DateUtc dt:dt="string">2017-12-26T06:39:05Z</DateUtc></StartTime><FrequencyChanges><FrequencyChange><Frequency dt:dt="r8">2742343</Frequency><Timestamp dt:dt="r8">15765959310</Timestamp><Current dt:dt="r8">0</Current><DateUtc dt:dt="string">2017-12-26T06:39:05Z</DateUtc></FrequencyChange></FrequencyChanges></Clock>\n	Assimilation_2b-101-1	60.015	1.0.0.62	1	-1413574928	Professional	2.0.10.353	2.0.10.353	12-26-2017	26-Dec-17 6:39:05 AM	17:39:05	2.0.10.248	23	2	1	3																						f1proc2	explist					26				2	3	26							Thai_F1_maa241-5	exproc	f1List2	0		0	0	1103224	0	7	2056	1105280	0		0	-1	1099224	f	1298	1100522	F1	maa	5	241
Assimilation_2b	101	1	<?xml version="1.0"?>\n<Clock xmlns:dt="urn:schemas-microsoft-com:datatypes"><Description dt:dt="string">E-Prime Primary Realtime Clock</Description><StartTime><Timestamp dt:dt="int">0</Timestamp><DateUtc dt:dt="string">2017-12-26T06:39:05Z</DateUtc></StartTime><FrequencyChanges><FrequencyChange><Frequency dt:dt="r8">2742343</Frequency><Timestamp dt:dt="r8">15765959310</Timestamp><Current dt:dt="r8">0</Current><DateUtc dt:dt="string">2017-12-26T06:39:05Z</DateUtc></FrequencyChange></FrequencyChanges></Clock>\n	Assimilation_2b-101-1	60.015	1.0.0.62	1	-1413574928	Professional	2.0.10.353	2.0.10.353	12-26-2017	26-Dec-17 6:39:05 AM	17:39:05	2.0.10.248	23	2	1	3																						f1proc2	explist					27				5	3	27							Thai_F1_maa45-5	exproc	f1List2	0		1	-1	1112221	0	7	2381	1114602	0		0	-1	1108222	g	1348	1109570	F1	maa	5	45
Assimilation_2b	101	1	<?xml version="1.0"?>\n<Clock xmlns:dt="urn:schemas-microsoft-com:datatypes"><Description dt:dt="string">E-Prime Primary Realtime Clock</Description><StartTime><Timestamp dt:dt="int">0</Timestamp><DateUtc dt:dt="string">2017-12-26T06:39:05Z</DateUtc></StartTime><FrequencyChanges><FrequencyChange><Frequency dt:dt="r8">2742343</Frequency><Timestamp dt:dt="r8">15765959310</Timestamp><Current dt:dt="r8">0</Current><DateUtc dt:dt="string">2017-12-26T06:39:05Z</DateUtc></FrequencyChange></FrequencyChanges></Clock>\n	Assimilation_2b-101-1	60.015	1.0.0.62	1	-1413574928	Professional	2.0.10.353	2.0.10.353	12-26-2017	26-Dec-17 6:39:05 AM	17:39:05	2.0.10.248	23	2	1	3																						f1proc2	explist					28				1	3	28							Thai_F1_maa21-5	exproc	f1List2	0		0	-1	1121219	0	7	1209	1122428	0		0	-1	1117219	h	1205	1118424	F1	maa	5	21
Assimilation_2b	101	1	<?xml version="1.0"?>\n<Clock xmlns:dt="urn:schemas-microsoft-com:datatypes"><Description dt:dt="string">E-Prime Primary Realtime Clock</Description><StartTime><Timestamp dt:dt="int">0</Timestamp><DateUtc dt:dt="string">2017-12-26T06:39:05Z</DateUtc></StartTime><FrequencyChanges><FrequencyChange><Frequency dt:dt="r8">2742343</Frequency><Timestamp dt:dt="r8">15765959310</Timestamp><Current dt:dt="r8">0</Current><DateUtc dt:dt="string">2017-12-26T06:39:05Z</DateUtc></FrequencyChange></FrequencyChanges></Clock>\n	Assimilation_2b-101-1	60.015	1.0.0.62	1	-1413574928	Professional	2.0.10.353	2.0.10.353	12-26-2017	26-Dec-17 6:39:05 AM	17:39:05	2.0.10.248	23	2	1	3																						f1proc2	explist					29				4	3	29							Thai_F1_maa33-5	exproc	f1List2	0		0	-1	1130217	0	7	1181	1131398	0		0	-1	1126217	f	1456	1127673	F1	maa	5	33
Assimilation_2b	101	1	<?xml version="1.0"?>\n<Clock xmlns:dt="urn:schemas-microsoft-com:datatypes"><Description dt:dt="string">E-Prime Primary Realtime Clock</Description><StartTime><Timestamp dt:dt="int">0</Timestamp><DateUtc dt:dt="string">2017-12-26T06:39:05Z</DateUtc></StartTime><FrequencyChanges><FrequencyChange><Frequency dt:dt="r8">2742343</Frequency><Timestamp dt:dt="r8">15765959310</Timestamp><Current dt:dt="r8">0</Current><DateUtc dt:dt="string">2017-12-26T06:39:05Z</DateUtc></FrequencyChange></FrequencyChanges></Clock>\n	Assimilation_2b-101-1	60.015	1.0.0.62	1	-1413574928	Professional	2.0.10.353	2.0.10.353	12-26-2017	26-Dec-17 6:39:05 AM	17:39:05	2.0.10.248	23	2	1	3																						f1proc2	explist					30				8	3	30							Thai_F1_mii315-4	exproc	f1List2	0		0	0	1139215	0	6	2281	1141496	0		0	-1	1135215	g	1054	1136269	F1	mii	4	315
Assimilation_2b	101	1	<?xml version="1.0"?>\n<Clock xmlns:dt="urn:schemas-microsoft-com:datatypes"><Description dt:dt="string">E-Prime Primary Realtime Clock</Description><StartTime><Timestamp dt:dt="int">0</Timestamp><DateUtc dt:dt="string">2017-12-26T06:39:05Z</DateUtc></StartTime><FrequencyChanges><FrequencyChange><Frequency dt:dt="r8">2742343</Frequency><Timestamp dt:dt="r8">15765959310</Timestamp><Current dt:dt="r8">0</Current><DateUtc dt:dt="string">2017-12-26T06:39:05Z</DateUtc></FrequencyChange></FrequencyChanges></Clock>\n	Assimilation_2b-101-1	60.015	1.0.0.62	1	-1413574928	Professional	2.0.10.353	2.0.10.353	12-26-2017	26-Dec-17 6:39:05 AM	17:39:05	2.0.10.248	24	4	1	4																						f2proc2	explist					1										1	1	1	Thai_F2_maa21-4	exproc	f2List2	0		0	-1	1151478	0	3	1022	1152500	0		0	-1	1147479	h	2196	1149675	F2	maa	4	21
Assimilation_2b	101	1	<?xml version="1.0"?>\n<Clock xmlns:dt="urn:schemas-microsoft-com:datatypes"><Description dt:dt="string">E-Prime Primary Realtime Clock</Description><StartTime><Timestamp dt:dt="int">0</Timestamp><DateUtc dt:dt="string">2017-12-26T06:39:05Z</DateUtc></StartTime><FrequencyChanges><FrequencyChange><Frequency dt:dt="r8">2742343</Frequency><Timestamp dt:dt="r8">15765959310</Timestamp><Current dt:dt="r8">0</Current><DateUtc dt:dt="string">2017-12-26T06:39:05Z</DateUtc></FrequencyChange></FrequencyChanges></Clock>\n	Assimilation_2b-101-1	60.015	1.0.0.62	1	-1413574928	Professional	2.0.10.353	2.0.10.353	12-26-2017	26-Dec-17 6:39:05 AM	17:39:05	2.0.10.248	24	4	1	4																						f2proc2	explist					2										10	1	2	Thai_F2_mii45-3	exproc	f2List2	0		0	-1	1160476	0	5	711	1161187	0		0	-1	1156476	g	1714	1158190	F2	mii	3	45
Assimilation_2b	101	1	<?xml version="1.0"?>\n<Clock xmlns:dt="urn:schemas-microsoft-com:datatypes"><Description dt:dt="string">E-Prime Primary Realtime Clock</Description><StartTime><Timestamp dt:dt="int">0</Timestamp><DateUtc dt:dt="string">2017-12-26T06:39:05Z</DateUtc></StartTime><FrequencyChanges><FrequencyChange><Frequency dt:dt="r8">2742343</Frequency><Timestamp dt:dt="r8">15765959310</Timestamp><Current dt:dt="r8">0</Current><DateUtc dt:dt="string">2017-12-26T06:39:05Z</DateUtc></FrequencyChange></FrequencyChanges></Clock>\n	Assimilation_2b-101-1	60.015	1.0.0.62	1	-1413574928	Professional	2.0.10.353	2.0.10.353	12-26-2017	26-Dec-17 6:39:05 AM	17:39:05	2.0.10.248	24	4	1	4																						f2proc2	explist					3										4	1	3	Thai_F2_maa33-5	exproc	f2List2	0		0	-1	1169474	0	5	1255	1170729	0		0	-1	1165474	f	1386	1166860	F2	maa	5	33
Assimilation_2b	101	1	<?xml version="1.0"?>\n<Clock xmlns:dt="urn:schemas-microsoft-com:datatypes"><Description dt:dt="string">E-Prime Primary Realtime Clock</Description><StartTime><Timestamp dt:dt="int">0</Timestamp><DateUtc dt:dt="string">2017-12-26T06:39:05Z</DateUtc></StartTime><FrequencyChanges><FrequencyChange><Frequency dt:dt="r8">2742343</Frequency><Timestamp dt:dt="r8">15765959310</Timestamp><Current dt:dt="r8">0</Current><DateUtc dt:dt="string">2017-12-26T06:39:05Z</DateUtc></FrequencyChange></FrequencyChanges></Clock>\n	Assimilation_2b-101-1	60.015	1.0.0.62	1	-1413574928	Professional	2.0.10.353	2.0.10.353	12-26-2017	26-Dec-17 6:39:05 AM	17:39:05	2.0.10.248	24	4	1	4																						f2proc2	explist					4										5	1	4	Thai_F2_maa45-2	exproc	f2List2	0		0	0	1178472	0	6	391	1178863	0		0	-1	1174472	g	1213	1175685	F2	maa	2	45
Assimilation_2b	101	1	<?xml version="1.0"?>\n<Clock xmlns:dt="urn:schemas-microsoft-com:datatypes"><Description dt:dt="string">E-Prime Primary Realtime Clock</Description><StartTime><Timestamp dt:dt="int">0</Timestamp><DateUtc dt:dt="string">2017-12-26T06:39:05Z</DateUtc></StartTime><FrequencyChanges><FrequencyChange><Frequency dt:dt="r8">2742343</Frequency><Timestamp dt:dt="r8">15765959310</Timestamp><Current dt:dt="r8">0</Current><DateUtc dt:dt="string">2017-12-26T06:39:05Z</DateUtc></FrequencyChange></FrequencyChanges></Clock>\n	Assimilation_2b-101-1	60.015	1.0.0.62	1	-1413574928	Professional	2.0.10.353	2.0.10.353	12-26-2017	26-Dec-17 6:39:05 AM	17:39:05	2.0.10.248	24	4	1	4																						f2proc2	explist					5										9	1	5	Thai_F2_mii33-5	exproc	f2List2	0		0	-1	1187469	0	5	803	1188272	0		0	-1	1183470	f	1191	1184661	F2	mii	5	33
Assimilation_2b	101	1	<?xml version="1.0"?>\n<Clock xmlns:dt="urn:schemas-microsoft-com:datatypes"><Description dt:dt="string">E-Prime Primary Realtime Clock</Description><StartTime><Timestamp dt:dt="int">0</Timestamp><DateUtc dt:dt="string">2017-12-26T06:39:05Z</DateUtc></StartTime><FrequencyChanges><FrequencyChange><Frequency dt:dt="r8">2742343</Frequency><Timestamp dt:dt="r8">15765959310</Timestamp><Current dt:dt="r8">0</Current><DateUtc dt:dt="string">2017-12-26T06:39:05Z</DateUtc></FrequencyChange></FrequencyChanges></Clock>\n	Assimilation_2b-101-1	60.015	1.0.0.62	1	-1413574928	Professional	2.0.10.353	2.0.10.353	12-26-2017	26-Dec-17 6:39:05 AM	17:39:05	2.0.10.248	24	4	1	4																						f2proc2	explist					6										2	1	6	Thai_F2_maa241-5	exproc	f2List2	0		0	-1	1196467	0	4	423	1196890	0		0	-1	1192467	f	1532	1193999	F2	maa	5	241
